File: 2025/starling_2025/figures/experimental_comparison/saxs_scattering/experiment/p53/mff_out.csv
#File Plotted Below: clean_p53_NTD_SAXS.dat,,,,,,,,,,
,,,,,,,,,,
    #Fit from 0.01-0.15 with polymer MFF,,,,,,,,,,
#Initial search parameter for I0 = 32.51082,,,,,,,,,,
#Initial search parameter for Rg = 30,,,,,,,,,,
#Initial search parameter for nu = 0.499881,,,,,,,,,,
#BestFit for I0 = 36.92644 +- 0.06685,,,,,,,,,,
#BestFit for I(0)/I0 = 1.00000 +- 0.00181,,,,,,,,,,
#BestFit for Rg = 29.76264 +- 0.04654,,,,,,,,,,
#BestFit for nu = 0.57214 +- 0.00240,,,,,,,,,,
#BestFit reduced chisquared = 1.63344,,,,,,,,,,
#-------------,,,,,,,,,,
#-------------,,,,,,,,,,
,,,,,,,,,,
    #q,I(q),Error,fit,I(q)/I0,Error/I0,fit/I0,qRg,((qRg)^2)I(q)/I0,((qRg)^2)*Error/I0,((qRg)^2)*fit/I0
0.00589,60.593,29.9468,36.58421,1.64091,0.81099,0.99073,0.17539,0.05048,0.02495,0.03048
0.00636,49.8198,13.9519,36.52096,1.34916,0.37783,0.98902,0.18918,0.04829,0.01352,0.0354
0.00682,42.8547,9.6561,36.45278,1.16054,0.2615,0.98717,0.20298,0.04781,0.01077,0.04067
0.00728,48.6453,7.6651,36.37977,1.31736,0.20758,0.9852,0.21677,0.0619,0.00975,0.04629
0.00775,40.3895,6.27703,36.302,1.09378,0.16999,0.98309,0.23056,0.05814,0.00904,0.05226
0.00821,31.5872,5.06198,36.21954,0.85541,0.13708,0.98086,0.24435,0.05107,0.00818,0.05856
0.00867,29.9186,4.42108,36.13249,0.81022,0.11973,0.9785,0.25814,0.05399,0.00798,0.06521
0.00914,41.3081,3.87332,36.04091,1.11866,0.10489,0.97602,0.27194,0.08272,0.00776,0.07218
0.0096,33.5465,3.37011,35.94489,0.90847,0.09127,0.97342,0.28573,0.07417,0.00745,0.07947
0.01006,27.411,2.84456,35.84451,0.74231,0.07703,0.9707,0.29952,0.06659,0.00691,0.08708
0.01053,28.5407,2.47493,35.73984,0.77291,0.06702,0.96787,0.31331,0.07587,0.00658,0.09501
0.01099,38.2547,2.13707,35.63097,1.03597,0.05787,0.96492,0.3271,0.11085,0.00619,0.10324
0.01145,32.2919,2.01065,35.51796,0.87449,0.05445,0.96186,0.3409,0.10162,0.00633,0.11178
0.01192,33.1244,1.79707,35.40091,0.89704,0.04867,0.95869,0.35469,0.11285,0.00612,0.12061
0.01238,33.4715,1.61326,35.27988,0.90644,0.04369,0.95541,0.36848,0.12307,0.00593,0.12972
0.01284,29.5297,1.3991,35.15494,0.79969,0.03789,0.95203,0.38227,0.11686,0.00554,0.13912
0.01331,33.8866,1.27886,35.02621,0.91768,0.03463,0.94854,0.39607,0.14395,0.00543,0.1488
0.01377,31.7436,1.15373,34.89375,0.85964,0.03124,0.94495,0.40986,0.14441,0.00525,0.15874
0.01423,32.9116,1.07458,34.75763,0.89127,0.0291,0.94127,0.42365,0.15997,0.00522,0.16894
0.0147,33.7238,1.00451,34.61793,0.91327,0.0272,0.93748,0.43744,0.17476,0.00521,0.17939
0.01516,32.475,0.9167,34.47474,0.87945,0.02483,0.93361,0.45123,0.17907,0.00505,0.19009
0.01562,32.8948,0.82891,34.32813,0.89082,0.02245,0.92964,0.46503,0.19264,0.00485,0.20103
0.01609,31.7587,0.78075,34.17818,0.86005,0.02114,0.92557,0.47882,0.19718,0.00485,0.2122
0.01655,31.7855,0.72726,34.02498,0.86078,0.01969,0.92143,0.49261,0.20888,0.00478,0.2236
0.01701,32.1221,0.68491,33.86859,0.86989,0.01855,0.91719,0.5064,0.22308,0.00476,0.23521
0.01748,32.9313,0.64716,33.70909,0.89181,0.01753,0.91287,0.52019,0.24133,0.00474,0.24703
0.01794,31.831,0.60648,33.54658,0.86201,0.01642,0.90847,0.53399,0.2458,0.00468,0.25904
0.0184,32.4674,0.56969,33.38112,0.87925,0.01543,0.90399,0.54778,0.26383,0.00463,0.27125
0.01887,33.1274,0.53768,33.21279,0.89712,0.01456,0.89943,0.56157,0.28292,0.00459,0.28365
0.01933,32.3256,0.51739,33.04167,0.87541,0.01401,0.8948,0.57536,0.2898,0.00464,0.29622
0.0198,32.3425,0.49654,32.86785,0.87586,0.01345,0.89009,0.58915,0.30401,0.00467,0.30895
0.02026,32.3802,0.4866,32.6914,0.87688,0.01318,0.88531,0.60295,0.31879,0.00479,0.32185
0.02072,32.4357,0.46194,32.5124,0.87839,0.01251,0.88046,0.61674,0.33411,0.00476,0.3349
0.02119,32.1573,0.43957,32.33092,0.87085,0.0119,0.87555,0.63053,0.34622,0.00473,0.34809
0.02165,31.5313,0.41704,32.14706,0.85389,0.01129,0.87057,0.64432,0.3545,0.00469,0.36142
0.02211,32.0156,0.41228,31.96088,0.86701,0.01116,0.86553,0.65811,0.37551,0.00484,0.37487
0.02258,31.0962,0.40044,31.77246,0.84211,0.01084,0.86043,0.67191,0.38018,0.0049,0.38845
0.02304,31.1659,0.39004,31.58189,0.844,0.01056,0.85526,0.6857,0.39683,0.00497,0.40213
0.0235,31.607,0.37518,31.38924,0.85594,0.01016,0.85005,0.69949,0.4188,0.00497,0.41592
0.02397,30.5719,0.35873,31.19456,0.82791,0.00971,0.84478,0.71329,0.42122,0.00494,0.4298
0.02443,31.4478,0.3503,30.99799,0.85163,0.00949,0.83945,0.72708,0.45021,0.00501,0.44377
0.02489,31.0129,0.34855,30.79958,0.83986,0.00944,0.83408,0.74087,0.46099,0.00518,0.45782
0.02536,29.7863,0.33824,30.59942,0.80664,0.00916,0.82866,0.75466,0.45939,0.00522,0.47193
0.02582,30.0728,0.33062,30.39757,0.8144,0.00895,0.82319,0.76845,0.48092,0.00529,0.48611
0.02628,29.8224,0.32512,30.19411,0.80762,0.0088,0.81768,0.78225,0.49419,0.00539,0.50035
0.02675,29.3148,0.31256,29.98913,0.79387,0.00846,0.81213,0.79604,0.50306,0.00536,0.51463
0.02721,29.9945,0.309,29.78271,0.81228,0.00837,0.80654,0.80983,0.53271,0.00549,0.52895
0.02767,29.4559,0.30256,29.57492,0.79769,0.00819,0.80091,0.82362,0.54112,0.00556,0.5433
0.02814,29.2271,0.29945,29.36584,0.7915,0.00811,0.79525,0.83741,0.55505,0.00569,0.55768
0.0286,29.4176,0.29232,29.15555,0.79665,0.00792,0.78956,0.85121,0.57722,0.00574,0.57207
0.02906,28.4101,0.28569,28.94413,0.76937,0.00774,0.78383,0.865,0.57566,0.00579,0.58648
0.02953,28.856,0.27705,28.73166,0.78145,0.0075,0.77808,0.87879,0.60349,0.00579,0.60089
0.02999,28.7263,0.27249,28.51821,0.77793,0.00738,0.7723,0.89258,0.61978,0.00588,0.61529
0.03045,28.9555,0.2702,28.30388,0.78414,0.00732,0.76649,0.90637,0.64418,0.00601,0.62968
0.03092,28.2117,0.26538,28.08872,0.764,0.00719,0.76067,0.92017,0.64688,0.00608,0.64406
0.03138,27.7473,0.25944,27.87284,0.75142,0.00703,0.75482,0.93396,0.65545,0.00613,0.65841
0.03184,27.1588,0.2546,27.65629,0.73548,0.00689,0.74896,0.94775,0.66063,0.00619,0.67273
0.03231,27.4809,0.24826,27.43917,0.74421,0.00672,0.74308,0.96154,0.68807,0.00622,0.68702
0.03277,27.6119,0.24543,27.22154,0.74775,0.00665,0.73718,0.97533,0.71132,0.00632,0.70126
0.03323,26.7117,0.24496,27.0035,0.72338,0.00663,0.73128,0.98913,0.70773,0.00649,0.71546
0.0337,26.8775,0.24193,26.78512,0.72787,0.00655,0.72536,1.00292,0.73212,0.00659,0.7296
0.03416,26.9856,0.23974,26.56646,0.73079,0.00649,0.71944,1.01671,0.75542,0.00671,0.74369
0.03462,26.4509,0.23238,26.34754,0.71631,0.00629,0.71351,1.0305,0.76068,0.00668,0.75771
0.03509,26.4686,0.22891,26.12851,0.71679,0.0062,0.70758,1.0443,0.7817,0.00676,0.77166
0.03555,26.6367,0.22738,25.90937,0.72134,0.00616,0.70165,1.05809,0.80758,0.00689,0.78553
0.03601,26.0291,0.22689,25.69017,0.70489,0.00614,0.69571,1.07188,0.80987,0.00706,0.79932
0.03648,26.3976,0.22461,25.47096,0.71487,0.00608,0.68978,1.08567,0.84261,0.00717,0.81303
0.03694,25.66,0.2187,25.2518,0.6949,0.00592,0.68384,1.09946,0.84,0.00716,0.82664
0.0374,25.2613,0.21557,25.03273,0.6841,0.00584,0.67791,1.11326,0.84783,0.00724,0.84016
0.03787,25.183,0.21318,24.81382,0.68198,0.00577,0.67198,1.12705,0.86627,0.00733,0.85357
0.03833,24.8469,0.21168,24.5951,0.67288,0.00573,0.66606,1.14084,0.87576,0.00746,0.86688
0.03879,24.9913,0.2102,24.37664,0.67679,0.00569,0.66014,1.15463,0.90228,0.00759,0.88008
0.03926,24.2226,0.20771,24.15848,0.65597,0.00562,0.65423,1.16842,0.89554,0.00768,0.89317
0.03972,24.1569,0.20514,23.94067,0.65419,0.00556,0.64833,1.18222,0.91432,0.00776,0.90614
0.04018,23.6159,0.20038,23.72328,0.63954,0.00543,0.64245,1.19601,0.91482,0.00776,0.91898
0.04065,23.5939,0.20003,23.50634,0.63894,0.00542,0.63657,1.2098,0.93517,0.00793,0.9317
0.04111,23.1229,0.19775,23.28992,0.62619,0.00536,0.63071,1.22359,0.93752,0.00802,0.94429
0.04158,23.4434,0.19692,23.07406,0.63487,0.00533,0.62487,1.23738,0.97206,0.00817,0.95675
0.04204,22.7732,0.19568,22.85882,0.61672,0.0053,0.61904,1.25118,0.96544,0.0083,0.96907
0.0425,22.6487,0.19219,22.64424,0.61335,0.0052,0.61323,1.26497,0.98144,0.00833,0.98125
0.04297,22.5082,0.19063,22.43039,0.60954,0.00516,0.60743,1.27876,0.99674,0.00844,0.99329
0.04343,22.0445,0.18838,22.2173,0.59698,0.0051,0.60166,1.29255,0.99738,0.00852,1.0052
0.04389,21.9048,0.18724,22.00504,0.5932,0.00507,0.59592,1.30634,1.01232,0.00865,1.01695
0.04436,21.3709,0.18689,21.79366,0.57874,0.00506,0.59019,1.32014,1.00861,0.00882,1.02856
0.04482,21.4931,0.18514,21.5832,0.58205,0.00501,0.58449,1.33393,1.03568,0.00892,1.04002
0.04528,21.5057,0.18148,21.37372,0.58239,0.00491,0.57882,1.34772,1.05783,0.00893,1.05134
0.04575,21.2998,0.17906,21.16523,0.57682,0.00485,0.57317,1.36152,1.06926,0.00899,1.0625
0.04621,21.1108,0.17755,20.95786,0.5717,0.00481,0.56756,1.37531,1.08135,0.00909,1.07352
0.04667,20.5948,0.17812,20.75163,0.55773,0.00482,0.56197,1.3891,1.07619,0.00931,1.08438
0.04714,20.2993,0.17719,20.54659,0.54972,0.0048,0.55642,1.40289,1.08191,0.00944,1.09509
0.0476,20.3735,0.176,20.34278,0.55173,0.00477,0.5509,1.41668,1.10732,0.00957,1.10565
0.04806,20.1448,0.17066,20.14027,0.54554,0.00462,0.54542,1.43048,1.11631,0.00946,1.11606
0.04853,20.0379,0.17015,19.9391,0.54264,0.00461,0.53997,1.44427,1.13191,0.00961,1.12632
0.04899,19.6274,0.16878,19.73932,0.53153,0.00457,0.53456,1.45806,1.12999,0.00972,1.13644
0.04945,19.3754,0.1685,19.54099,0.5247,0.00456,0.52919,1.47185,1.13669,0.00989,1.1464
0.04992,19.3775,0.16783,19.34415,0.52476,0.00454,0.52386,1.48564,1.15822,0.01003,1.15622
0.05038,19.4949,0.16652,19.14887,0.52794,0.00451,0.51857,1.49944,1.18697,0.01014,1.1659
0.05084,18.8056,0.16417,18.95518,0.50927,0.00445,0.51332,1.51323,1.16616,0.01018,1.17544
0.05131,18.7976,0.16317,18.7631,0.50906,0.00442,0.50812,1.52702,1.18701,0.0103,1.18483
0.05177,18.7354,0.1637,18.57264,0.50737,0.00443,0.50296,1.54081,1.20455,0.01052,1.19409
0.05223,18.6047,0.16155,18.38378,0.50383,0.00437,0.49785,1.5546,1.21766,0.01057,1.2032
0.0527,18.5029,0.16166,18.19653,0.50107,0.00438,0.49278,1.5684,1.23258,0.01077,1.21217
0.05316,18.2894,0.1602,18.01089,0.49529,0.00434,0.48775,1.58219,1.23988,0.01086,1.221
0.05362,18.1593,0.15834,17.82687,0.49177,0.00429,0.48277,1.59598,1.25261,0.01092,1.22968
0.05409,17.7284,0.15634,17.64446,0.4801,0.00423,0.47783,1.60977,1.24412,0.01097,1.23823
0.05455,17.4115,0.15657,17.46366,0.47152,0.00424,0.47293,1.62356,1.2429,0.01118,1.24663
0.05501,17.2587,0.15594,17.28448,0.46738,0.00422,0.46808,1.63736,1.25302,0.01132,1.25489
0.05548,17.342,0.15604,17.10692,0.46964,0.00423,0.46327,1.65115,1.28037,0.01152,1.26301
0.05594,17.1656,0.15342,16.93097,0.46486,0.00415,0.45851,1.66494,1.2886,0.01152,1.27099
0.0564,16.7832,0.15252,16.75665,0.4545,0.00413,0.45378,1.67873,1.28086,0.01164,1.27883
0.05687,16.6853,0.15073,16.5839,0.45185,0.00408,0.44911,1.69253,1.2944,0.01169,1.28653
0.05733,16.3525,0.15178,16.41281,0.44284,0.00411,0.44447,1.70632,1.28934,0.01197,1.29409
0.05779,16.2536,0.15123,16.24334,0.44016,0.0041,0.43988,1.72011,1.30234,0.01212,1.30152
0.05826,16.1331,0.15061,16.07549,0.4369,0.00408,0.43534,1.7339,1.3135,0.01226,1.30881
0.05872,15.8838,0.14952,15.90927,0.43015,0.00405,0.43084,1.7477,1.31386,0.01237,1.31596
0.05918,15.684,0.14695,15.74467,0.42474,0.00398,0.42638,1.76149,1.31789,0.01235,1.32299
0.05965,15.9288,0.14602,15.58169,0.43137,0.00395,0.42197,1.77528,1.3595,0.01246,1.32987
0.06011,15.2237,0.14687,15.42033,0.41227,0.00398,0.4176,1.78907,1.31959,0.01273,1.33663
0.06057,14.8208,0.14741,15.26061,0.40136,0.00399,0.41327,1.80286,1.30455,0.01298,1.34326
0.06104,15.1188,0.14542,15.10251,0.40943,0.00394,0.40899,1.81666,1.35122,0.013,1.34976
0.0615,14.9297,0.14422,14.94603,0.40431,0.00391,0.40475,1.83045,1.35465,0.01309,1.35613
0.06196,14.916,0.14271,14.79119,0.40394,0.00386,0.40056,1.84424,1.37388,0.01314,1.36239
0.06243,14.7462,0.14228,14.63797,0.39934,0.00385,0.39641,1.85803,1.37863,0.0133,1.36851
0.06289,14.6752,0.14314,14.48638,0.39742,0.00388,0.3923,1.87182,1.39244,0.01358,1.37452
0.06336,14.3524,0.1423,14.33643,0.38868,0.00385,0.38824,1.88562,1.38195,0.0137,1.38042
0.06382,14.324,0.14046,14.18811,0.38791,0.0038,0.38423,1.89941,1.39947,0.01372,1.38619
0.06428,14.0838,0.13928,14.04141,0.3814,0.00377,0.38025,1.9132,1.39606,0.01381,1.39185
0.06475,13.6355,0.13899,13.89636,0.36926,0.00376,0.37633,1.92699,1.37118,0.01398,1.39741
0.06521,13.9456,0.13839,13.75293,0.37766,0.00375,0.37244,1.94078,1.42251,0.01412,1.40285
0.06567,13.6088,0.13805,13.61115,0.36854,0.00374,0.3686,1.95458,1.40795,0.01428,1.40819
0.06614,13.4742,0.13842,13.47099,0.36489,0.00375,0.36481,1.96837,1.41377,0.01452,1.41343
0.0666,13.4602,0.13661,13.33248,0.36451,0.0037,0.36106,1.98216,1.43216,0.01454,1.41857
0.06706,13.1437,0.13603,13.1956,0.35594,0.00368,0.35735,1.99595,1.41801,0.01468,1.42361
0.06753,13.0428,0.13472,13.06033,0.35321,0.00365,0.35369,2.00975,1.42664,0.01474,1.42856
0.06799,13.0977,0.13477,12.92672,0.3547,0.00365,0.35007,2.02354,1.45238,0.01494,1.43342
0.06845,12.8809,0.13511,12.79473,0.34883,0.00366,0.34649,2.03733,1.44788,0.01519,1.43819
0.06892,12.5367,0.13422,12.66433,0.3395,0.00363,0.34296,2.05112,1.42833,0.01529,1.44287
0.06938,12.1492,0.13373,12.53552,0.32901,0.00362,0.33947,2.06491,1.40286,0.01544,1.44747
0.06984,12.3987,0.1317,12.40827,0.33577,0.00357,0.33603,2.07871,1.45086,0.01541,1.45198
0.07031,12.2485,0.13178,12.28258,0.3317,0.00357,0.33262,2.0925,1.45236,0.01563,1.45641
0.07077,12.1082,0.13151,12.15843,0.3279,0.00356,0.32926,2.10629,1.45472,0.0158,1.46075
0.07123,11.969,0.1313,12.0358,0.32413,0.00356,0.32594,2.12008,1.45689,0.01598,1.46502
0.0717,11.7778,0.13083,11.91468,0.31895,0.00354,0.32266,2.13387,1.45233,0.01613,1.46921
0.07216,11.966,0.13001,11.79506,0.32405,0.00352,0.31942,2.14767,1.49467,0.01624,1.47332
0.07262,11.618,0.12875,11.67691,0.31463,0.00349,0.31622,2.16146,1.4699,0.01629,1.47735
0.07309,11.6488,0.1282,11.56022,0.31546,0.00347,0.31306,2.17525,1.49266,0.01643,1.48131
0.07355,11.4075,0.12834,11.44498,0.30892,0.00348,0.30994,2.18904,1.48034,0.01665,1.4852
0.07401,11.4216,0.12844,11.33118,0.30931,0.00348,0.30686,2.20283,1.50091,0.01688,1.48902
0.07448,11.3125,0.1273,11.21879,0.30635,0.00345,0.30381,2.21663,1.50524,0.01694,1.49277
0.07494,11.1884,0.12726,11.1078,0.30299,0.00345,0.30081,2.23042,1.50731,0.01715,1.49645
0.0754,11.1856,0.12586,10.99821,0.30292,0.00341,0.29784,2.24421,1.52563,0.01717,1.50007
0.07587,10.7411,0.12585,10.88998,0.29088,0.00341,0.29491,2.258,1.48306,0.01738,1.50362
0.07633,10.6815,0.12581,10.78311,0.28926,0.00341,0.29202,2.27179,1.49291,0.01758,1.50711
0.07679,10.5685,0.12566,10.67758,0.2862,0.0034,0.28916,2.28559,1.4951,0.01778,1.51053
0.07726,10.6296,0.1255,10.57338,0.28786,0.0034,0.28634,2.29938,1.52195,0.01797,1.5139
0.07772,10.4263,0.12418,10.47049,0.28235,0.00336,0.28355,2.31317,1.5108,0.01799,1.51721
0.07818,10.065,0.12323,10.3689,0.27257,0.00334,0.2808,2.32696,1.47589,0.01807,1.52046
0.07865,10.3081,0.12252,10.26856,0.27915,0.00332,0.27808,2.34076,1.52952,0.01818,1.52365
0.07911,10.3177,0.12375,10.16952,0.27941,0.00335,0.2754,2.35455,1.54903,0.01858,1.52679
0.07957,10.1316,0.12299,10.07172,0.27437,0.00333,0.27275,2.36834,1.53897,0.01868,1.52987
0.08004,9.79355,0.12212,9.97516,0.26522,0.00331,0.27014,2.38213,1.50499,0.01877,1.5329
0.0805,9.93488,0.121,9.87982,0.26905,0.00328,0.26755,2.39593,1.54444,0.01881,1.53588
0.08096,9.92802,0.12026,9.78569,0.26886,0.00326,0.265,2.40972,1.5612,0.01891,1.53881
0.08143,9.74029,0.12048,9.69275,0.26378,0.00326,0.26249,2.42351,1.54926,0.01916,1.5417
0.08189,9.47715,0.12087,9.60098,0.25665,0.00327,0.26,2.4373,1.52461,0.01944,1.54453
0.08235,9.43279,0.11957,9.51037,0.25545,0.00324,0.25755,2.45109,1.5347,0.01945,1.54732
0.08282,9.37203,0.11937,9.42091,0.2538,0.00323,0.25513,2.46489,1.54202,0.01964,1.55006
0.08328,9.26826,0.11858,9.33258,0.25099,0.00321,0.25273,2.47868,1.54206,0.01973,1.55276
0.08374,9.08907,0.11769,9.24536,0.24614,0.00319,0.25037,2.49247,1.52912,0.0198,1.55542
0.08421,8.97895,0.11768,9.15925,0.24316,0.00319,0.24804,2.50626,1.52736,0.02002,1.55803
0.08467,8.88512,0.11773,9.07421,0.24062,0.00319,0.24574,2.52005,1.52808,0.02025,1.5606
0.08514,9.10087,0.11756,8.99025,0.24646,0.00318,0.24346,2.53385,1.58236,0.02044,1.56313
0.0856,8.70122,0.11694,8.90736,0.23564,0.00317,0.24122,2.54764,1.52939,0.02055,1.56562
0.08606,8.8239,0.11633,8.82551,0.23896,0.00315,0.239,2.56143,1.56779,0.02067,1.56808
0.08653,8.65948,0.11532,8.74469,0.23451,0.00312,0.23681,2.57522,1.55519,0.02071,1.57049
0.08699,8.5439,0.11609,8.6649,0.23138,0.00314,0.23465,2.58901,1.55091,0.02107,1.57288
0.08745,8.74,0.11536,8.58612,0.23669,0.00312,0.23252,2.60281,1.60346,0.02116,1.57523
0.08792,8.5025,0.11537,8.50833,0.23026,0.00312,0.23041,2.6166,1.57646,0.02139,1.57754
0.08838,8.48302,0.11484,8.43154,0.22973,0.00311,0.22833,2.63039,1.58947,0.02152,1.57983
0.08884,8.40221,0.1146,8.35571,0.22754,0.0031,0.22628,2.64418,1.59088,0.0217,1.58208
0.08931,8.32884,0.11329,8.28085,0.22555,0.00307,0.22425,2.65797,1.59349,0.02168,1.5843
0.08977,7.96279,0.11327,8.20691,0.21564,0.00307,0.22225,2.67177,1.53931,0.0219,1.5865
0.09023,7.98837,0.11331,8.13393,0.21633,0.00307,0.22027,2.68556,1.56024,0.02213,1.58867
0.0907,8.15779,0.11363,8.06188,0.22092,0.00308,0.21832,2.69935,1.60973,0.02242,1.59081
0.09116,7.64517,0.11263,7.99073,0.20704,0.00305,0.2164,2.71314,1.52404,0.02245,1.59292
0.09162,8.0343,0.11191,7.92048,0.21758,0.00303,0.21449,2.72694,1.61793,0.02254,1.59501
0.09209,7.85238,0.11134,7.85112,0.21265,0.00302,0.21262,2.74073,1.59733,0.02265,1.59708
0.09255,7.77674,0.1117,7.78263,0.2106,0.00302,0.21076,2.75452,1.59791,0.02295,1.59912
0.09301,7.60221,0.11227,7.715,0.20587,0.00304,0.20893,2.76831,1.57773,0.0233,1.60114
0.09348,7.62913,0.11133,7.64821,0.2066,0.00301,0.20712,2.7821,1.59913,0.02334,1.60313
0.09394,7.7614,0.11031,7.58227,0.21019,0.00299,0.20533,2.7959,1.64303,0.02335,1.60511
0.0944,7.71628,0.10994,7.51714,0.20896,0.00298,0.20357,2.80969,1.64963,0.0235,1.60706
0.09487,7.48012,0.10977,7.45283,0.20257,0.00297,0.20183,2.82348,1.61488,0.0237,1.60899
0.09533,7.42035,0.1096,7.38932,0.20095,0.00297,0.20011,2.83727,1.61767,0.02389,1.6109
0.09579,7.01791,0.11036,7.32659,0.19005,0.00299,0.19841,2.85106,1.54484,0.02429,1.61279
0.09626,7.09483,0.1092,7.26463,0.19213,0.00296,0.19673,2.86486,1.57692,0.02427,1.61466
0.09672,7.08145,0.10837,7.20343,0.19177,0.00293,0.19508,2.87865,1.58914,0.02432,1.61651
0.09718,7.32128,0.10812,7.14299,0.19827,0.00293,0.19344,2.89244,1.65874,0.0245,1.61835
0.09765,7.02576,0.10799,7.08327,0.19026,0.00292,0.19182,2.90623,1.607,0.0247,1.62016
0.09811,7.02448,0.10796,7.02428,0.19023,0.00292,0.19022,2.92002,1.622,0.02493,1.62195
0.09857,6.73198,0.10814,6.96601,0.18231,0.00293,0.18865,2.93382,1.56917,0.02521,1.62372
0.09904,6.64785,0.10733,6.90842,0.18003,0.00291,0.18709,2.94761,1.56417,0.02525,1.62548
0.0995,6.86913,0.10683,6.85153,0.18602,0.00289,0.18555,2.9614,1.63139,0.02537,1.62721
0.09996,6.81047,0.10658,6.79531,0.18443,0.00289,0.18402,2.97519,1.63256,0.02555,1.62893
0.10043,6.74767,0.10652,6.73979,0.18273,0.00288,0.18252,2.98897,1.63253,0.02577,1.63062
0.10089,6.45651,0.10664,6.68481,0.17485,0.00289,0.18103,3.00278,1.57655,0.02604,1.6323
0.10135,6.61733,0.10671,6.63058,0.1792,0.00289,0.17956,3.01656,1.63069,0.0263,1.63395
0.10182,6.6393,0.10631,6.57686,0.1798,0.00288,0.17811,3.03037,1.65111,0.02644,1.63559
0.10228,6.50808,0.10503,6.52388,0.17624,0.00284,0.17667,3.04415,1.63323,0.02636,1.6372
0.10274,6.50023,0.10495,6.47152,0.17603,0.00284,0.17525,3.05793,1.64607,0.02658,1.63879
0.10321,6.44721,0.10534,6.41965,0.1746,0.00285,0.17385,3.07174,1.64742,0.02692,1.64038
0.10367,6.30064,0.10535,6.36849,0.17063,0.00285,0.17246,3.08552,1.62444,0.02716,1.64194
0.10414,6.39529,0.10504,6.31781,0.17319,0.00284,0.17109,3.09933,1.66364,0.02733,1.64349
0.1046,6.26738,0.10463,6.26784,0.16973,0.00283,0.16974,3.11311,1.6449,0.02746,1.64502
0.10506,6.15924,0.10308,6.21843,0.1668,0.00279,0.1684,3.12689,1.63086,0.02729,1.64653
0.10552,6.05093,0.10332,6.1695,0.16386,0.0028,0.16708,3.1407,1.61636,0.0276,1.64803
0.10599,5.9357,0.10373,6.12124,0.16074,0.00281,0.16577,3.15448,1.59952,0.02795,1.64952
0.10645,6.05645,0.1039,6.07343,0.16401,0.00281,0.16447,3.16829,1.64638,0.02824,1.651
0.10691,6.21558,0.10339,6.02627,0.16832,0.0028,0.1632,3.18207,1.70437,0.02835,1.65246
0.10738,6.05081,0.10284,5.97956,0.16386,0.00279,0.16193,3.19588,1.67362,0.02845,1.65392
0.10784,6.07965,0.10231,5.93348,0.16464,0.00277,0.16068,3.20966,1.69613,0.02854,1.65535
0.1083,6.07552,0.10188,5.88793,0.16453,0.00276,0.15945,3.22344,1.70957,0.02867,1.65678
0.10877,5.74215,0.10253,5.84281,0.1555,0.00278,0.15823,3.23725,1.62964,0.0291,1.6582
0.10923,5.70709,0.10269,5.7983,0.15455,0.00278,0.15702,3.25103,1.6335,0.02939,1.65961
0.1097,5.72424,0.10188,5.7542,0.15502,0.00276,0.15583,3.26484,1.65236,0.02941,1.66101
0.11016,5.59744,0.10146,5.7107,0.15158,0.00275,0.15465,3.27862,1.62943,0.02954,1.6624
0.11062,5.57988,0.10099,5.66769,0.15111,0.00274,0.15349,3.2924,1.638,0.02965,1.66378
0.11109,5.74169,0.10066,5.62508,0.15549,0.00273,0.15233,3.30621,1.69967,0.0298,1.66515
0.11155,5.68703,0.10121,5.58303,0.15401,0.00274,0.15119,3.31999,1.69755,0.03021,1.66651
0.11201,5.3743,0.10118,5.54137,0.14554,0.00274,0.15007,3.3338,1.61757,0.03045,1.66786
0.11248,5.49692,0.10078,5.50026,0.14886,0.00273,0.14895,3.34758,1.66819,0.03058,1.6692
0.11294,5.42808,0.10009,5.45962,0.147,0.00271,0.14785,3.36136,1.66089,0.03062,1.67053
0.1134,5.36256,0.09978,5.41933,0.14522,0.0027,0.14676,3.37517,1.65435,0.03078,1.67186
0.11387,5.35913,0.09901,5.37958,0.14513,0.00268,0.14568,3.38895,1.66682,0.03079,1.67318
0.11433,5.13273,0.09945,5.34018,0.139,0.00269,0.14462,3.40276,1.60944,0.03118,1.67449
0.11479,5.27698,0.09962,5.30129,0.14291,0.0027,0.14356,3.41654,1.6681,0.03149,1.67578
0.11526,5.34,0.09913,5.26282,0.14461,0.00268,0.14252,3.43032,1.70166,0.03159,1.67707
0.11572,5.29064,0.09835,5.22469,0.14328,0.00266,0.14149,3.44413,1.69954,0.03159,1.67835
0.11618,5.17913,0.09792,5.18705,0.14026,0.00265,0.14047,3.45791,1.67706,0.03171,1.67962
0.11665,5.13605,0.0979,5.14973,0.13909,0.00265,0.13946,3.47172,1.67642,0.03195,1.68088
0.11711,5.22686,0.09877,5.11288,0.14155,0.00267,0.13846,3.4855,1.71963,0.03249,1.68213
0.11757,5.00047,0.09871,5.07642,0.13542,0.00267,0.13747,3.49928,1.65818,0.03273,1.68337
0.11804,5.01826,0.09773,5.04026,0.1359,0.00265,0.13649,3.51309,1.67724,0.03266,1.68459
0.1185,4.89767,0.09735,5.00456,0.13263,0.00264,0.13553,3.52687,1.6498,0.03279,1.68581
0.11896,4.88488,0.09683,4.96915,0.13229,0.00262,0.13457,3.54068,1.6584,0.03287,1.68701
0.11943,5.03948,0.09758,4.93418,0.13647,0.00264,0.13362,3.55446,1.72423,0.03339,1.68821
0.11989,4.83913,0.09708,4.89958,0.13105,0.00263,0.13268,3.56824,1.66855,0.03347,1.68939
0.12035,4.82169,0.09728,4.86526,0.13058,0.00263,0.13176,3.58205,1.67543,0.0338,1.69057
0.12082,4.72314,0.09685,4.83138,0.12791,0.00262,0.13084,3.59583,1.65384,0.03391,1.69174
0.12128,4.78477,0.09712,4.79777,0.12958,0.00263,0.12993,3.60964,1.68831,0.03427,1.6929
0.12174,4.75773,0.09677,4.76458,0.12884,0.00262,0.12903,3.62342,1.69161,0.03441,1.69405
0.12221,4.64029,0.09746,4.73174,0.12566,0.00264,0.12814,3.6372,1.66243,0.03492,1.69519
0.12267,4.65994,0.09757,4.69916,0.1262,0.00264,0.12726,3.65101,1.68217,0.03522,1.69633
0.12313,4.51047,0.09753,4.66699,0.12215,0.00264,0.12639,3.66479,1.64053,0.03547,1.69746
0.1236,4.7075,0.09723,4.63508,0.12748,0.00263,0.12552,3.6786,1.72512,0.03563,1.69858
0.12406,4.57047,0.09698,4.60357,0.12377,0.00263,0.12467,3.69238,1.68747,0.0358,1.6997
0.12452,4.51366,0.09695,4.57239,0.12223,0.00263,0.12382,3.70616,1.67896,0.03606,1.70081
0.12499,4.60907,0.09756,4.54145,0.12482,0.00264,0.12299,3.71997,1.72725,0.03656,1.70191
0.12545,4.58256,0.09752,4.5109,0.1241,0.00264,0.12216,3.73375,1.73006,0.03682,1.70301
0.12591,4.53849,0.09778,4.4806,0.12291,0.00265,0.12134,3.74756,1.72612,0.03719,1.70411
0.12638,4.42552,0.09758,4.45067,0.11985,0.00264,0.12053,3.76134,1.69556,0.03738,1.70519
0.12684,4.41797,0.09671,4.42104,0.11964,0.00262,0.11973,3.77512,1.70509,0.03733,1.70628
0.12731,4.34959,0.09714,4.39165,0.11779,0.00263,0.11893,3.78893,1.691,0.03776,1.70735
0.12777,4.10076,0.09759,4.36261,0.11105,0.00264,0.11814,3.80271,1.60588,0.03822,1.70843
0.12823,4.33831,0.09836,4.33381,0.11749,0.00266,0.11736,3.81652,1.71127,0.0388,1.7095
0.1287,4.22663,0.09728,4.30536,0.11446,0.00263,0.11659,3.8303,1.67928,0.03865,1.71056
0.12916,4.19744,0.09715,4.27713,0.11367,0.00263,0.11583,3.84411,1.67973,0.03888,1.71162
0.12962,4.25279,0.09645,4.24924,0.11517,0.00261,0.11507,3.85789,1.7141,0.03887,1.71267
0.13009,4.22674,0.09682,4.22163,0.11446,0.00262,0.11433,3.87167,1.7158,0.0393,1.71372
0.13055,4.12297,0.09722,4.19423,0.11165,0.00263,0.11358,3.88548,1.68563,0.03975,1.71477
0.13101,4.03297,0.0977,4.16716,0.10922,0.00265,0.11285,3.89926,1.66055,0.04023,1.7158
0.13148,4.15983,0.09724,4.14029,0.11265,0.00263,0.11212,3.91307,1.72494,0.04032,1.71684
0.13194,4.28291,0.09723,4.11374,0.11598,0.00263,0.1114,3.92685,1.78851,0.0406,1.71786
0.1324,4.31308,0.09619,4.08745,0.1168,0.0026,0.11069,3.94063,1.81377,0.04045,1.71889
0.13287,4.16686,0.09725,4.06135,0.11284,0.00263,0.10998,3.95444,1.76458,0.04118,1.7199
0.13333,4.06047,0.097,4.03556,0.10996,0.00263,0.10929,3.96822,1.73153,0.04136,1.72091
0.13379,3.92372,0.09726,4.00996,0.10626,0.00263,0.10859,3.98203,1.68489,0.04176,1.72192
0.13426,4.12808,0.09694,3.98465,0.11179,0.00263,0.10791,3.99581,1.78493,0.04192,1.72291
0.13472,3.90238,0.09634,3.95958,0.10568,0.00261,0.10723,4.00959,1.699,0.04194,1.7239
0.13518,3.90459,0.09676,3.93469,0.10574,0.00262,0.10655,4.0234,1.71169,0.04242,1.72488
0.13565,3.98512,0.09668,3.91008,0.10792,0.00262,0.10589,4.03718,1.75898,0.04267,1.72586
0.13611,3.85198,0.09752,3.88565,0.10431,0.00264,0.10523,4.05099,1.71187,0.04334,1.72683
0.13657,3.66651,0.0968,3.8615,0.09929,0.00262,0.10457,4.06477,1.64054,0.04331,1.72779
0.13704,3.98372,0.0972,3.83757,0.10788,0.00263,0.10392,4.07855,1.79458,0.04379,1.72875
0.1375,3.88884,0.09617,3.81381,0.10531,0.0026,0.10328,4.09236,1.76373,0.04362,1.7297
0.13796,3.81517,0.09603,3.79033,0.10332,0.0026,0.10265,4.10614,1.74199,0.04385,1.73064
0.13843,3.79779,0.09608,3.76701,0.10285,0.0026,0.10201,4.11995,1.74573,0.04417,1.73158
0.13889,3.64547,0.09678,3.74396,0.09872,0.00262,0.10139,4.13373,1.68695,0.04479,1.73252
0.13935,3.5461,0.09668,3.72111,0.09603,0.00262,0.10077,4.14751,1.65192,0.04504,1.73345
0.13982,3.46436,0.09616,3.69844,0.09382,0.0026,0.10016,4.16132,1.62461,0.04509,1.73438
0.14028,3.86523,0.09545,3.67601,0.10467,0.00258,0.09955,4.1751,1.82462,0.04506,1.7353
0.14074,3.77802,0.09565,3.65375,0.10231,0.00259,0.09895,4.18891,1.79527,0.04545,1.73622
0.14121,3.67134,0.09605,3.63174,0.09942,0.0026,0.09835,4.20269,1.75607,0.04594,1.73713
0.14167,3.58924,0.09653,3.60993,0.0972,0.00261,0.09776,4.21647,1.72808,0.04647,1.73804
0.14213,3.66605,0.09604,3.58827,0.09928,0.0026,0.09717,4.23028,1.77664,0.04654,1.73895
0.1426,3.71105,0.09528,3.56686,0.1005,0.00258,0.09659,4.24406,1.81019,0.04647,1.73985
0.14306,3.44936,0.09548,3.54559,0.09341,0.00259,0.09602,4.25787,1.69351,0.04688,1.74075
0.14352,3.47459,0.09548,3.52457,0.09409,0.00259,0.09545,4.27165,1.71695,0.04718,1.74165
0.14399,3.64209,0.09579,3.50373,0.09863,0.00259,0.09488,4.28543,1.81135,0.04764,1.74254
0.14445,3.33843,0.09546,3.48304,0.09041,0.00259,0.09432,4.29924,1.67105,0.04778,1.74343
0.14491,3.50977,0.09622,3.46258,0.09505,0.00261,0.09377,4.31302,1.76809,0.04847,1.74432
0.14538,3.39494,0.09508,3.44225,0.09194,0.00257,0.09322,4.32683,1.72121,0.04821,1.7452
0.14584,3.56215,0.09491,3.42216,0.09647,0.00257,0.09267,4.34061,1.81751,0.04842,1.74608
0.1463,3.55163,0.095,3.40224,0.09618,0.00257,0.09214,4.35439,1.82367,0.04878,1.74696
0.14677,3.51273,0.09535,3.38245,0.09513,0.00258,0.0916,4.3682,1.81515,0.04927,1.74783
0.14723,3.61814,0.09532,3.36288,0.09798,0.00258,0.09107,4.38198,1.88144,0.04957,1.7487
0.14769,3.41209,0.09556,3.34345,0.0924,0.00259,0.09054,4.39579,1.78549,0.05001,1.74957
0.14816,3.43017,0.09452,3.32422,0.09289,0.00256,0.09002,4.40957,1.80622,0.04977,1.75043
0.14862,3.4639,0.09486,3.30516,0.09381,0.00257,0.08951,4.42335,1.8354,0.05026,1.75129
0.14908,3.36041,0.09469,3.28623,0.091,0.00256,0.08899,4.43716,1.7917,0.05049,1.75215
0.14955,3.18134,0.0953,3.2675,0.08615,0.00258,0.08849,4.45094,1.70678,0.05113,1.753
0.15001,3.31221,0.09511,3.24889,0.0897,0.00258,0.08798,4.46475,1.78803,0.05134,1.75385
0.15047,3.13599,0.09472,3.23048,0.08493,0.00257,0.08748,4.47853,1.70337,0.05145,1.75469
0.15094,3.18657,0.09425,3.21218,0.0863,0.00255,0.08699,4.49234,1.74153,0.05151,1.75553
0.1514,3.22349,0.09417,3.19408,0.08729,0.00255,0.0865,4.50612,1.77254,0.05178,1.75637
0.15186,2.97023,0.09486,3.17613,0.08044,0.00257,0.08601,4.5199,1.64328,0.05248,1.75719
0.15233,3.22215,0.09486,3.1583,0.08726,0.00257,0.08553,4.53371,1.79356,0.0528,1.75802
0.15279,3.44221,0.09538,3.14065,0.09322,0.00258,0.08505,4.54749,1.92772,0.05341,1.75884
0.15326,3.27901,0.09437,3.12311,0.0888,0.00256,0.08458,4.5613,1.8475,0.05317,1.75966
0.15372,3.30703,0.09374,3.10576,0.08956,0.00254,0.08411,4.57508,1.87456,0.05314,1.76047
0.15418,3.36599,0.09356,3.08855,0.09115,0.00253,0.08364,4.58886,1.91949,0.05335,1.76127
0.15465,3.14942,0.09416,3.07144,0.08529,0.00255,0.08318,4.60267,1.80681,0.05402,1.76208
0.15511,3.10163,0.09402,3.05452,0.08399,0.00255,0.08272,4.61645,1.79007,0.05426,1.76288
0.15557,3.27645,0.09425,3.0377,0.08873,0.00255,0.08226,4.63026,1.90229,0.05472,1.76368
0.15604,2.96837,0.09371,3.02106,0.08039,0.00254,0.08181,4.64404,1.7337,0.05473,1.76447
0.1565,2.77058,0.09379,3.00455,0.07503,0.00254,0.08137,4.65782,1.62779,0.0551,1.76526
0.15696,3.07506,0.09299,2.98815,0.08328,0.00252,0.08092,4.67163,1.81741,0.05496,1.76605
0.15743,3.13331,0.09373,2.97192,0.08485,0.00254,0.08048,4.68541,1.86278,0.05573,1.76683
0.15789,2.97384,0.09356,2.95579,0.08053,0.00253,0.08005,4.69922,1.77841,0.05595,1.76762
0.15835,2.86029,0.09392,2.93982,0.07746,0.00254,0.07961,4.713,1.72055,0.05649,1.76839
0.15882,3.08674,0.09291,2.92398,0.08359,0.00252,0.07918,4.72678,1.86764,0.05622,1.76917
0.15928,3.13872,0.09276,2.90825,0.085,0.00251,0.07876,4.74059,1.91021,0.05645,1.76994
0.15974,3.17634,0.09286,2.89267,0.08602,0.00251,0.07834,4.75437,1.94436,0.05684,1.77071
0.16021,3.04209,0.09324,2.87719,0.08238,0.00252,0.07792,4.76818,1.87301,0.05741,1.77148
0.16067,2.89424,0.09368,2.86186,0.07838,0.00254,0.0775,4.78196,1.7923,0.05801,1.77225
0.16113,2.92169,0.0929,2.84666,0.07912,0.00252,0.07709,4.79574,1.81974,0.05786,1.77301
0.1616,2.96221,0.09297,2.83155,0.08022,0.00252,0.07668,4.80955,1.85562,0.05824,1.77377
0.16206,3.02663,0.09173,2.8166,0.08196,0.00248,0.07628,4.82333,1.90685,0.05779,1.77453
0.16252,3.00407,0.09308,2.80173,0.08135,0.00252,0.07587,4.83714,1.90349,0.05898,1.77528
0.16299,2.7907,0.09256,2.78702,0.07557,0.00251,0.07547,4.85092,1.77838,0.05898,1.77603
0.16345,2.8986,0.09333,2.77242,0.0785,0.00253,0.07508,4.8647,1.85765,0.05981,1.77678
0.16391,2.86512,0.09231,2.75791,0.07759,0.0025,0.07469,4.87851,1.84663,0.05949,1.77753
0.16438,2.89767,0.09231,2.74354,0.07847,0.0025,0.0743,4.89229,1.87818,0.05983,1.77827
0.16484,2.8082,0.09161,2.72925,0.07605,0.00248,0.07391,4.9061,1.83048,0.05971,1.77902
0.1653,2.8261,0.09248,2.71511,0.07653,0.0025,0.07353,4.91988,1.85251,0.06062,1.77975
0.16577,2.79686,0.092,2.70108,0.07574,0.00249,0.07315,4.93366,1.84362,0.06064,1.78049
0.16623,2.79767,0.09242,2.68712,0.07576,0.0025,0.07277,4.94747,1.8545,0.06126,1.78122
0.16669,3.06331,0.09166,2.67331,0.08296,0.00248,0.0724,4.96125,2.04191,0.0611,1.78195
0.16716,3.08308,0.09181,2.65957,0.08349,0.00249,0.07202,4.97506,2.06654,0.06154,1.78267
0.16762,2.79814,0.09207,2.64596,0.07578,0.00249,0.07165,4.98884,1.88596,0.06205,1.78339
0.16808,2.96884,0.09212,2.63246,0.0804,0.00249,0.07129,5.00262,2.01208,0.06244,1.78411
0.16855,2.91698,0.09235,2.61904,0.07899,0.0025,0.07093,5.01643,1.98786,0.06293,1.78482
0.16901,2.8361,0.09157,2.60574,0.0768,0.00248,0.07057,5.03021,1.94338,0.06274,1.78553
0.16947,2.72384,0.09192,2.59251,0.07376,0.00249,0.07021,5.04402,1.87672,0.06333,1.78623
0.16994,2.75151,0.09143,2.57942,0.07451,0.00248,0.06985,5.0578,1.90615,0.06334,1.78693
0.1704,2.5989,0.09149,2.56642,0.07038,0.00248,0.0695,5.07158,1.81025,0.06373,1.78763
0.17086,2.71936,0.09111,2.55349,0.07364,0.00247,0.06915,5.08539,1.90449,0.06381,1.78832
0.17133,2.99605,0.09182,2.54069,0.08114,0.00249,0.0688,5.09917,2.10965,0.06466,1.78901
0.17179,2.88099,0.09107,2.52795,0.07802,0.00247,0.06846,5.11298,2.03964,0.06447,1.7897
0.17225,2.6414,0.09129,2.51534,0.07153,0.00247,0.06812,5.12676,1.88011,0.06498,1.79038
0.17272,2.53715,0.09024,2.50279,0.06871,0.00244,0.06778,5.14057,1.81565,0.06458,1.79106
0.17318,2.7261,0.09088,2.49037,0.07383,0.00246,0.06744,5.15435,1.96134,0.06538,1.79174
0.17364,2.60326,0.09127,2.47804,0.0705,0.00247,0.06711,5.16813,1.88299,0.06602,1.79241
0.17411,2.79593,0.09133,2.46577,0.07572,0.00247,0.06678,5.18194,2.03317,0.06641,1.79309
0.17457,2.61105,0.09079,2.45362,0.07071,0.00246,0.06645,5.19572,1.90884,0.06637,1.79375
0.17504,2.47267,0.09021,2.44154,0.06696,0.00244,0.06612,5.20953,1.8173,0.0663,1.79442
0.1755,2.69872,0.09033,2.42957,0.07308,0.00245,0.06579,5.22331,1.99394,0.06674,1.79508
0.17596,2.64884,0.09047,2.41769,0.07173,0.00245,0.06547,5.23709,1.96743,0.0672,1.79574
0.17643,2.60564,0.09099,2.40587,0.07056,0.00246,0.06515,5.2509,1.94556,0.06794,1.7964
0.17689,2.77529,0.09053,2.39416,0.07516,0.00245,0.06484,5.26468,2.08313,0.06795,1.79705
0.17735,2.77709,0.0906,2.38252,0.07521,0.00245,0.06452,5.27849,2.09543,0.06836,1.79771
0.17782,2.65169,0.09006,2.37098,0.07181,0.00244,0.06421,5.29227,2.01127,0.06831,1.79835
0.17828,2.75878,0.09045,2.35953,0.07471,0.00245,0.0639,5.30605,2.10341,0.06896,1.799
0.17874,2.74837,0.08996,2.34814,0.07443,0.00244,0.06359,5.31986,2.10639,0.06895,1.79964
0.17921,2.48512,0.09105,2.33685,0.0673,0.00247,0.06328,5.33364,1.91451,0.07015,1.80028
0.17967,2.5386,0.08997,2.32562,0.06875,0.00244,0.06298,5.34745,1.96585,0.06967,1.80092
0.18013,2.62593,0.09001,2.31449,0.07111,0.00244,0.06268,5.36123,2.04397,0.07006,1.80156
0.1806,2.66517,0.08961,2.30345,0.07218,0.00243,0.06238,5.37501,2.0852,0.07011,1.80219
0.18106,2.40965,0.09,2.29246,0.06526,0.00244,0.06208,5.38882,1.89498,0.07077,1.80282
0.18152,2.36081,0.08989,2.28157,0.06393,0.00243,0.06179,5.4026,1.86608,0.07105,1.80345
0.18199,2.3339,0.09027,2.27074,0.0632,0.00244,0.06149,5.41641,1.85425,0.07172,1.80407
0.18245,2.62326,0.08973,2.26,0.07104,0.00243,0.0612,5.43019,2.09476,0.07165,1.80469
0.18291,2.55971,0.0898,2.24934,0.06932,0.00243,0.06091,5.44397,2.0544,0.07208,1.8053
0.18338,2.38948,0.08941,2.23874,0.06471,0.00242,0.06063,5.45778,1.92752,0.07213,1.80592
0.18384,2.24814,0.08918,2.22822,0.06088,0.00241,0.06034,5.47156,1.82267,0.0723,1.80653
0.1843,2.45058,0.08999,2.21776,0.06636,0.00244,0.06006,5.48537,1.99684,0.07333,1.80713
0.18477,2.57076,0.0901,2.2074,0.06962,0.00244,0.05978,5.49915,2.10531,0.07379,1.80774
0.18523,2.31349,0.08952,2.1971,0.06265,0.00242,0.0595,5.51293,1.90413,0.07368,1.80833
0.18569,2.54587,0.08915,2.18686,0.06894,0.00241,0.05922,5.52674,2.1059,0.07375,1.80893
0.18616,2.47959,0.08917,2.1767,0.06715,0.00241,0.05895,5.54052,2.06131,0.07413,1.80952
0.18662,2.38256,0.0891,2.16659,0.06452,0.00241,0.05867,5.55433,1.99054,0.07444,1.81011
0.18708,2.36721,0.08984,2.15658,0.06411,0.00243,0.0584,5.56811,1.98754,0.07543,1.81069
0.18755,2.39715,0.08951,2.14663,0.06492,0.00242,0.05813,5.58189,2.02265,0.07552,1.81127
0.18801,2.38523,0.08942,2.13673,0.06459,0.00242,0.05786,5.5957,2.02256,0.07582,1.81184
0.18847,2.46837,0.08866,2.12691,0.06685,0.0024,0.0576,5.60948,2.10338,0.07555,1.81242
0.18894,2.32744,0.08906,2.11714,0.06303,0.00241,0.05733,5.62329,1.99307,0.07627,1.81299
0.1894,2.42116,0.08871,2.10746,0.06557,0.0024,0.05707,5.63707,2.0835,0.07634,1.81355
0.18986,2.30343,0.08926,2.09785,0.06238,0.00242,0.05681,5.65085,1.99189,0.07719,1.81411
0.19033,2.31436,0.08877,2.08828,0.06267,0.0024,0.05655,5.66466,2.01114,0.07714,1.81468
0.19079,2.28884,0.0888,2.07879,0.06198,0.0024,0.0563,5.67844,1.99865,0.07754,1.81523
0.19126,2.20267,0.08815,2.06935,0.05965,0.00239,0.05604,5.69225,1.93277,0.07735,1.81579
0.19172,2.16564,0.08883,2.05999,0.05865,0.00241,0.05579,5.70603,1.90949,0.07832,1.81634
0.19218,2.30017,0.08895,2.05069,0.06229,0.00241,0.05553,5.71981,2.03792,0.07881,1.81688
0.19265,2.38744,0.08877,2.04144,0.06465,0.0024,0.05528,5.73362,2.12546,0.07903,1.81743
0.19311,2.34459,0.08829,2.03227,0.06349,0.00239,0.05504,5.7474,2.09736,0.07898,1.81797
0.19357,2.32238,0.08819,2.02314,0.06289,0.00239,0.05479,5.76121,2.08749,0.07927,1.81851
0.19404,2.23058,0.08839,2.01409,0.06041,0.00239,0.05454,5.77499,2.01458,0.07983,1.81905
0.1945,2.53523,0.08844,2.00508,0.06866,0.00239,0.0543,5.7888,2.30069,0.08025,1.81958
0.19473,2.44529,0.08881,2.00062,0.06622,0.00241,0.05418,5.79568,2.22434,0.08079,1.81985