File: 2025/starling_2025/figures/experimental_comparison/saxs_scattering/experiment/hev_pnt3_200_314/mff_out.csv
#File Plotted Below: hev_pnt3_200_314.dat,,,,,,,,,,
,,,,,,,,,,
    #Fit from 0.01-0.15 with polymer MFF,,,,,,,,,,
#Initial search parameter for I0 = 0.02754142,,,,,,,,,,
#Initial search parameter for Rg = 30,,,,,,,,,,
#Initial search parameter for nu = 0.499881,,,,,,,,,,
#BestFit for I0 = 0.02961 +- 0.00007,,,,,,,,,,
#BestFit for I(0)/I0 = 1.00000 +- 0.00233,,,,,,,,,,
#BestFit for Rg = 37.66948 +- 0.07793,,,,,,,,,,
#BestFit for nu = 0.60280 +- 0.00129,,,,,,,,,,
#BestFit reduced chisquared = 2.79840,,,,,,,,,,
#-------------,,,,,,,,,,
#-------------,,,,,,,,,,
,,,,,,,,,,
    #q,I(q),Error,fit,I(q)/I0,Error/I0,fit/I0,qRg,((qRg)^2)I(q)/I0,((qRg)^2)*Error/I0,((qRg)^2)*fit/I0
0.0114,0.02804,0.00027,0.02783,0.94705,0.00927,0.93986,0.42952,0.17472,0.00171,0.17339
0.01231,0.02844,0.00026,0.02754,0.96069,0.00871,0.93021,0.46388,0.20673,0.00187,0.20017
0.01323,0.02761,0.00023,0.02724,0.93245,0.00782,0.92,0.49824,0.23148,0.00194,0.22839
0.01414,0.02754,0.00022,0.02692,0.93012,0.00747,0.90927,0.53261,0.26384,0.00212,0.25793
0.01505,0.02698,0.00021,0.02659,0.91122,0.00702,0.89804,0.56697,0.29291,0.00226,0.28868
0.01596,0.02666,0.0002,0.02624,0.90044,0.00671,0.88634,0.60133,0.32559,0.00243,0.32049
0.01688,0.0263,0.00019,0.02588,0.88826,0.0064,0.87422,0.63569,0.35894,0.00259,0.35327
0.01779,0.02585,0.00018,0.02551,0.87318,0.00609,0.8617,0.67005,0.39203,0.00274,0.38687
0.0187,0.02548,0.00018,0.02513,0.86065,0.00592,0.84881,0.70441,0.42705,0.00294,0.42117
0.01961,0.02508,0.00017,0.02474,0.84717,0.00577,0.83559,0.73877,0.46237,0.00315,0.45605
0.02052,0.02469,0.00016,0.02434,0.83395,0.00548,0.82207,0.77313,0.49848,0.00327,0.49138
0.02144,0.02397,0.00016,0.02393,0.80972,0.00532,0.80828,0.80749,0.52798,0.00347,0.52704
0.02235,0.02395,0.00015,0.02352,0.80898,0.00519,0.79426,0.84186,0.57334,0.00368,0.56291
0.02326,0.02334,0.00015,0.0231,0.78827,0.00509,0.78003,0.87622,0.6052,0.00391,0.59887
0.02417,0.0227,0.00015,0.02267,0.76681,0.0049,0.76563,0.91058,0.6358,0.00407,0.63483
0.02508,0.02248,0.00014,0.02224,0.75921,0.00481,0.7511,0.94494,0.67791,0.00429,0.67066
0.026,0.02189,0.00014,0.0218,0.73922,0.00459,0.73646,0.9793,0.70893,0.00441,0.70629
0.02691,0.02147,0.00014,0.02137,0.72511,0.00456,0.72175,1.01366,0.74506,0.00469,0.7416
0.02782,0.02087,0.00013,0.02093,0.70495,0.00447,0.70699,1.04802,0.77428,0.00491,0.77652
0.02873,0.02039,0.00013,0.02049,0.68878,0.00436,0.69221,1.08238,0.80695,0.00511,0.81096
0.02965,0.01977,0.00013,0.02006,0.66768,0.0043,0.67743,1.11674,0.83267,0.00536,0.84483
0.03056,0.01952,0.00012,0.01962,0.65924,0.00416,0.66267,1.1511,0.87351,0.00552,0.87807
0.03147,0.01916,0.00012,0.01918,0.64707,0.0041,0.64796,1.18547,0.90935,0.00576,0.91059
0.03238,0.01852,0.00012,0.01875,0.62542,0.00406,0.63331,1.21982,0.93061,0.00604,0.94235
0.03329,0.01813,0.00012,0.01832,0.61228,0.00397,0.61876,1.25419,0.96311,0.00624,0.97329
0.03421,0.01774,0.00011,0.01789,0.59924,0.00387,0.60431,1.28854,0.99494,0.00643,1.00337
0.03512,0.01728,0.00011,0.01747,0.58376,0.00379,0.59,1.32291,1.02163,0.00664,1.03255
0.03603,0.01683,0.00011,0.01705,0.56834,0.00372,0.57584,1.35727,1.04699,0.00685,1.0608
0.03694,0.01636,0.00011,0.01664,0.55242,0.00369,0.56186,1.39163,1.06984,0.00714,1.08812
0.03786,0.01583,0.00011,0.01623,0.53476,0.0036,0.54809,1.42599,1.08739,0.00732,1.1145
0.03877,0.01569,0.00011,0.01583,0.53002,0.00358,0.53453,1.46035,1.13033,0.00764,1.13995
0.03968,0.01523,0.0001,0.01543,0.51436,0.00347,0.52122,1.49471,1.14915,0.00776,1.16448
0.04059,0.01473,0.0001,0.01505,0.49752,0.00347,0.50817,1.52907,1.16322,0.00811,1.18813
0.0415,0.01445,0.0001,0.01467,0.4882,0.00338,0.4954,1.56343,1.19331,0.00826,1.2109
0.04242,0.01408,0.0001,0.0143,0.47541,0.00336,0.48289,1.59779,1.21369,0.00857,1.2328
0.04333,0.01386,0.0001,0.01394,0.46796,0.00329,0.47067,1.63215,1.24659,0.00877,1.25381
0.04424,0.01327,0.0001,0.01358,0.4482,0.00328,0.45871,1.66651,1.24477,0.00911,1.27395
0.04515,0.01312,0.0001,0.01324,0.44317,0.00324,0.44703,1.70087,1.28206,0.00936,1.29323
0.04606,0.01271,0.00009,0.0129,0.42921,0.0032,0.43562,1.73523,1.29234,0.00963,1.31165
0.04698,0.01241,0.00009,0.01257,0.41907,0.00315,0.42449,1.76958,1.31229,0.00986,1.32925
0.04789,0.01205,0.00009,0.01225,0.4071,0.00309,0.41363,1.80394,1.3248,0.01005,1.34605
0.0488,0.01186,0.00009,0.01193,0.40045,0.00306,0.40305,1.8383,1.35326,0.01035,1.36206
0.04971,0.01141,0.00009,0.01163,0.38543,0.00306,0.39275,1.87266,1.35165,0.01074,1.37733
0.05063,0.01137,0.00009,0.01133,0.3839,0.003,0.38273,1.90702,1.39613,0.01092,1.39188
0.05154,0.01085,0.00009,0.01104,0.36637,0.00295,0.37298,1.94138,1.38084,0.01113,1.40576
0.05245,0.01061,0.00009,0.01076,0.35825,0.00292,0.36352,1.97574,1.39843,0.01139,1.41901
0.05336,0.01036,0.00009,0.01049,0.35004,0.00288,0.35433,2.0101,1.41434,0.01164,1.43168
0.05427,0.01026,0.00009,0.01023,0.34651,0.00293,0.34543,2.04445,1.44835,0.01223,1.44381
0.05519,0.0099,0.00009,0.00997,0.33437,0.00294,0.33679,2.07882,1.44496,0.0127,1.45544
0.0561,0.00966,0.00009,0.00972,0.32639,0.00294,0.32842,2.11318,1.4575,0.01311,1.46657
0.05701,0.00948,0.00009,0.00948,0.32021,0.0029,0.32031,2.14753,1.47679,0.01338,1.47725
0.05792,0.00926,0.00009,0.00925,0.31264,0.00294,0.31246,2.18189,1.48836,0.01398,1.48749
0.05883,0.00895,0.00009,0.00903,0.30214,0.00292,0.30484,2.21625,1.48405,0.01432,1.49732
0.05975,0.00888,0.00009,0.00881,0.29988,0.00292,0.29747,2.2506,1.51896,0.0148,1.50676
0.06066,0.00864,0.00009,0.0086,0.29197,0.0029,0.29033,2.28496,1.52439,0.01516,1.51584
0.06157,0.00832,0.00009,0.00839,0.28113,0.00288,0.28342,2.31932,1.51227,0.01547,1.52458
0.06248,0.00833,0.00009,0.00819,0.28129,0.00289,0.27672,2.35368,1.55831,0.01602,1.533
0.06339,0.00801,0.00009,0.008,0.27042,0.00289,0.27024,2.38804,1.54211,0.0165,1.54113
0.06431,0.0078,0.00009,0.00782,0.26339,0.00288,0.26397,2.42239,1.54559,0.0169,1.54897
0.06522,0.00776,0.00008,0.00764,0.26204,0.00284,0.2579,2.45675,1.58159,0.01715,1.55656
0.06613,0.00758,0.00008,0.00746,0.2561,0.00284,0.25201,2.49111,1.58927,0.01763,1.5639
0.06704,0.00745,0.00008,0.00729,0.25151,0.00285,0.24632,2.52546,1.60409,0.01819,1.57101
0.06795,0.0073,0.00008,0.00713,0.24664,0.00281,0.2408,2.55982,1.61613,0.01842,1.57792
0.06887,0.00726,0.00008,0.00697,0.24507,0.0028,0.23547,2.59418,1.64925,0.01883,1.58463
0.06978,0.00711,0.00008,0.00682,0.24013,0.00277,0.2303,2.62854,1.65908,0.01913,1.59117
0.07069,0.00677,0.00008,0.00667,0.2285,0.00277,0.22529,2.66289,1.62026,0.01964,1.59755
0.0716,0.00671,0.00008,0.00653,0.22658,0.00279,0.22045,2.69725,1.64842,0.02029,1.60379
0.07252,0.00656,0.00008,0.00639,0.22158,0.00276,0.21576,2.73161,1.65337,0.02056,1.6099
0.07343,0.00643,0.00008,0.00625,0.21714,0.00273,0.21121,2.76596,1.66121,0.02085,1.61589
0.07434,0.00635,0.00008,0.00612,0.21459,0.00272,0.20681,2.80032,1.68275,0.02135,1.62177
0.07525,0.00606,0.00008,0.006,0.20474,0.00272,0.20255,2.83467,1.64515,0.02188,1.62755
0.07616,0.00608,0.00008,0.00587,0.2055,0.00272,0.19842,2.86903,1.69156,0.02238,1.63322
0.07708,0.0058,0.00008,0.00576,0.19601,0.0027,0.19441,2.90338,1.65233,0.02278,1.63881
0.07799,0.00579,0.00008,0.00564,0.19554,0.00268,0.19053,2.93774,1.68758,0.02312,1.64429
0.0789,0.00571,0.00008,0.00553,0.19274,0.00267,0.18676,2.9721,1.70258,0.02357,1.64968
0.07981,0.00556,0.00008,0.00542,0.18766,0.00267,0.1831,3.00645,1.69622,0.02412,1.65496
0.08072,0.00543,0.00008,0.00532,0.18334,0.00264,0.17954,3.04081,1.69523,0.02439,1.66014
0.08164,0.00538,0.00008,0.00521,0.18178,0.00263,0.17609,3.07516,1.71903,0.02492,1.66521
0.08255,0.00532,0.00008,0.00511,0.17976,0.00264,0.17274,3.10951,1.73815,0.02555,1.6702
0.08346,0.00518,0.00008,0.00502,0.17504,0.00262,0.16948,3.14387,1.73004,0.02593,1.67512
0.08437,0.00526,0.00008,0.00492,0.17762,0.00261,0.16632,3.17822,1.7942,0.02632,1.67997
0.08528,0.005,0.00008,0.00483,0.16903,0.00258,0.16324,3.21258,1.74446,0.02662,1.68476
0.0862,0.00488,0.00008,0.00474,0.16486,0.00257,0.16025,3.24693,1.73806,0.02706,1.68949
0.08711,0.00472,0.00008,0.00466,0.15932,0.00256,0.15735,3.28128,1.71541,0.02759,1.69418
0.08802,0.00471,0.00008,0.00458,0.15902,0.00256,0.15453,3.31564,1.74816,0.02815,1.69883
0.08893,0.00469,0.00008,0.00449,0.15835,0.00256,0.15179,3.34999,1.77711,0.02869,1.70343
0.08984,0.00445,0.00008,0.00442,0.15042,0.00253,0.14912,3.38434,1.72289,0.02903,1.70799
0.09076,0.00448,0.00007,0.00434,0.15139,0.00253,0.14653,3.4187,1.76939,0.02954,1.71251
0.09167,0.00436,0.00007,0.00426,0.14741,0.00253,0.144,3.45305,1.75768,0.03014,1.71699
0.09258,0.00429,0.00007,0.00419,0.14494,0.00252,0.14154,3.4874,1.76273,0.03061,1.72141
0.09349,0.00409,0.00007,0.00412,0.138,0.00249,0.13915,3.52176,1.71156,0.03091,1.72579
0.0944,0.00425,0.00007,0.00405,0.14368,0.00248,0.13681,3.55611,1.81698,0.03139,1.7301
0.09531,0.00409,0.00007,0.00398,0.13808,0.00248,0.13454,3.59046,1.78,0.03197,1.73437
0.09623,0.00398,0.00007,0.00392,0.1345,0.00246,0.13232,3.62481,1.76729,0.03237,1.73861
0.09714,0.00394,0.00007,0.00385,0.13294,0.00247,0.13016,3.65916,1.78003,0.03306,1.74281
0.09805,0.0039,0.00007,0.00379,0.13183,0.00245,0.12806,3.69352,1.79843,0.03339,1.74698
0.09896,0.00389,0.00007,0.00373,0.13135,0.00243,0.12601,3.72787,1.82533,0.03378,1.75113
0.09987,0.00378,0.00007,0.00367,0.12754,0.00241,0.12401,3.76222,1.80521,0.03418,1.75526
0.10079,0.00378,0.00007,0.00361,0.12766,0.00241,0.12206,3.79656,1.84004,0.0348,1.75937
0.1017,0.00374,0.00007,0.00356,0.12637,0.00241,0.12016,3.83091,1.85456,0.03535,1.76346
0.10261,0.00348,0.00007,0.0035,0.11741,0.00242,0.11831,3.86527,1.75417,0.03619,1.76754
0.10352,0.00359,0.00007,0.00345,0.12129,0.00238,0.1165,3.89962,1.84444,0.03621,1.77161
0.10443,0.00347,0.00007,0.0034,0.11706,0.00238,0.11474,3.93397,1.81166,0.03683,1.77566
0.10535,0.00334,0.00007,0.00335,0.11285,0.00236,0.11301,3.96833,1.77707,0.03716,1.77969
0.10626,0.00343,0.00007,0.0033,0.11593,0.00245,0.11133,4.00268,1.85744,0.03926,1.7837
0.10717,0.00332,0.00007,0.00325,0.11202,0.00247,0.10969,4.03704,1.82574,0.0402,1.78768
0.10808,0.00336,0.00007,0.0032,0.11365,0.00246,0.10809,4.07136,1.88379,0.04084,1.79163
0.10899,0.00318,0.00007,0.00315,0.1075,0.0024,0.10652,4.10571,1.81214,0.04041,1.79558
0.10991,0.00323,0.00007,0.00311,0.10925,0.00239,0.10499,4.14006,1.87262,0.04089,1.79951
0.11082,0.00308,0.00007,0.00306,0.10418,0.00239,0.10349,4.17442,1.81539,0.04159,1.80343
0.11173,0.00318,0.00007,0.00302,0.10752,0.00238,0.10203,4.20877,1.90455,0.04216,1.80735
0.11264,0.00297,0.00007,0.00298,0.10044,0.00236,0.1006,4.24313,1.80839,0.04247,1.81127
0.11355,0.00304,0.00007,0.00294,0.10257,0.00235,0.09921,4.27748,1.87671,0.04292,1.81519
0.11446,0.00293,0.00007,0.0029,0.09896,0.00233,0.09785,4.3118,1.83975,0.04334,1.81911
0.11538,0.0029,0.00007,0.00286,0.0978,0.00233,0.09651,4.34615,1.84727,0.04403,1.82303
0.11629,0.00282,0.00007,0.00282,0.09514,0.00231,0.09521,4.38051,1.8257,0.04431,1.82696
0.1172,0.0029,0.00007,0.00278,0.09808,0.0023,0.09394,4.41486,1.91168,0.04484,1.8309
0.11811,0.0028,0.00007,0.00274,0.09458,0.00232,0.09269,4.44922,1.87217,0.04586,1.83483
0.11902,0.00277,0.00007,0.00271,0.09346,0.00229,0.09147,4.48353,1.87876,0.046,1.83876
0.11993,0.00266,0.00007,0.00267,0.08973,0.00228,0.09028,4.51789,1.83161,0.04657,1.8427
0.12085,0.00262,0.00007,0.00264,0.0885,0.00225,0.08911,4.55224,1.83401,0.04659,1.84663
0.12176,0.00258,0.00007,0.0026,0.08711,0.00225,0.08797,4.5866,1.83242,0.04735,1.85057
0.12267,0.00263,0.00007,0.00257,0.0889,0.00226,0.08685,4.62095,1.89841,0.0482,1.85451
0.12358,0.00241,0.00007,0.00254,0.08146,0.00226,0.08576,4.65527,1.76542,0.04897,1.85845
0.12449,0.00248,0.00007,0.00251,0.0837,0.00223,0.08468,4.68962,1.84079,0.04903,1.86241
0.12541,0.00247,0.00007,0.00248,0.08336,0.00222,0.08363,4.72398,1.86015,0.04964,1.86637
0.12632,0.0025,0.00007,0.00245,0.0845,0.00221,0.08261,4.75833,1.91333,0.05015,1.87034
0.12723,0.0023,0.00007,0.00242,0.07777,0.00222,0.0816,4.79265,1.78624,0.05105,1.87431
0.12814,0.00225,0.00007,0.00239,0.07587,0.0022,0.08061,4.82701,1.76771,0.05135,1.8783
0.12905,0.00251,0.00007,0.00236,0.08475,0.00221,0.07965,4.86136,2.00291,0.05218,1.88229
0.12996,0.00226,0.00007,0.00233,0.07628,0.00225,0.0787,4.89571,1.82824,0.05385,1.88629
0.13088,0.00219,0.00007,0.0023,0.07412,0.00229,0.07777,4.93003,1.80156,0.05566,1.89029
0.13179,0.00225,0.00007,0.00228,0.07592,0.00228,0.07686,4.96439,1.87094,0.05622,1.89429
0.1327,0.00212,0.00007,0.00225,0.07176,0.0023,0.07597,4.99874,1.79307,0.05756,1.89829
0.13361,0.00217,0.00007,0.00222,0.07336,0.00232,0.0751,5.03306,1.85844,0.05868,1.90229
0.13452,0.00211,0.00007,0.0022,0.07136,0.00232,0.07424,5.06741,1.83237,0.05945,1.90628
0.13543,0.002,0.00007,0.00217,0.06768,0.00231,0.07339,5.10177,1.7615,0.06012,1.91026
0.13635,0.00209,0.00007,0.00215,0.07045,0.00231,0.07257,5.13608,1.85829,0.06087,1.91424
0.13726,0.00216,0.00007,0.00212,0.07308,0.00232,0.07175,5.17044,1.9538,0.06211,1.91823
0.13817,0.00208,0.00007,0.0021,0.07039,0.00233,0.07096,5.20479,1.90673,0.06319,1.92221
0.13908,0.00209,0.00007,0.00208,0.0707,0.00236,0.07017,5.23911,1.94055,0.06473,1.92618
0.13999,0.00197,0.00007,0.00205,0.06661,0.00235,0.06941,5.27346,1.85247,0.06539,1.93016
0.14091,0.00183,0.00007,0.00203,0.06189,0.00233,0.06865,5.30782,1.74352,0.06578,1.93413
0.14182,0.00195,0.00007,0.00201,0.06573,0.00235,0.06791,5.34214,1.87586,0.06701,1.93809
0.14273,0.00186,0.00007,0.00199,0.06285,0.00234,0.06718,5.37649,1.81687,0.06762,1.94205
0.14364,0.00192,0.00007,0.00197,0.06486,0.00236,0.06647,5.41084,1.89884,0.06905,1.94601
0.14455,0.00185,0.00007,0.00195,0.06259,0.00236,0.06577,5.44516,1.85589,0.06996,1.94994
0.14546,0.00181,0.00007,0.00193,0.06107,0.00234,0.06507,5.47952,1.83362,0.07038,1.95387
0.14637,0.0018,0.00007,0.00191,0.06084,0.00233,0.0644,5.51383,1.84978,0.07096,1.95778
0.14729,0.00173,0.00007,0.00189,0.05856,0.00233,0.06373,5.54819,1.80265,0.07164,1.96168
0.1482,0.00168,0.00007,0.00187,0.05675,0.00232,0.06307,5.58254,1.76868,0.07242,1.96556
0.14911,0.00183,0.00007,0.00185,0.06197,0.00234,0.06242,5.61686,1.9551,0.07375,1.96941
0.15002,0.00178,0.00007,0.00183,0.05995,0.00233,0.06179,5.65121,1.9146,0.07451,1.97326
0.15093,0.00166,0.00007,0.00181,0.05618,0.00233,0.06116,5.68553,1.81603,0.07522,1.97708
0.15184,0.00175,0.00007,0.00179,0.059,0.00231,0.06055,5.71989,1.93046,0.07558,1.98089
0.15276,0.00162,0.00007,0.00177,0.05486,0.00233,0.05994,5.7542,1.81646,0.07699,1.98468
0.15367,0.00171,0.00007,0.00176,0.05787,0.00231,0.05934,5.78856,1.93921,0.0775,1.98845
0.15458,0.00171,0.00007,0.00174,0.05762,0.00232,0.05876,5.82287,1.95356,0.07859,1.9922
0.15549,0.00148,0.00007,0.00172,0.0501,0.00231,0.05818,5.85723,1.7189,0.07925,1.99593
0.1564,0.0017,0.00007,0.00171,0.05737,0.00232,0.05761,5.89154,1.99128,0.08039,1.99964
0.15731,0.0018,0.00007,0.00169,0.06072,0.00229,0.05705,5.9259,2.13224,0.08041,2.00333
0.15822,0.00156,0.00007,0.00167,0.05257,0.0023,0.0565,5.96022,1.86738,0.08181,2.00699
0.15914,0.00156,0.00007,0.00166,0.05282,0.0023,0.05595,5.99457,1.89797,0.0825,2.01062
0.16005,0.00153,0.00007,0.00164,0.05154,0.00229,0.05542,6.02889,1.87348,0.08339,2.01422
0.16096,0.00157,0.00007,0.00163,0.05303,0.00229,0.05489,6.06324,1.94947,0.08418,2.01779
0.16187,0.00134,0.00007,0.00161,0.04527,0.00229,0.05437,6.09756,1.68322,0.08518,2.02133
0.16278,0.0014,0.00007,0.00159,0.0474,0.00228,0.05385,6.13191,1.78219,0.08572,2.02485
0.16369,0.00155,0.00007,0.00158,0.05229,0.00226,0.05335,6.16623,1.98832,0.08595,2.02834
0.16461,0.00151,0.00007,0.00156,0.05102,0.00227,0.05285,6.20059,1.96173,0.08734,2.03181
0.16552,0.00142,0.00007,0.00155,0.04787,0.00228,0.05236,6.2349,1.86104,0.08853,2.03525
0.16643,0.00149,0.00007,0.00154,0.05019,0.00229,0.05187,6.26926,1.97279,0.09,2.03867
0.16734,0.00138,0.00007,0.00152,0.0465,0.00227,0.05139,6.30357,1.84772,0.09004,2.04208
0.16825,0.00135,0.00007,0.00151,0.04575,0.00225,0.05092,6.33789,1.83759,0.0905,2.04546
0.16916,0.0013,0.00007,0.00149,0.044,0.00223,0.05046,6.37225,1.7866,0.09065,2.04883
0.17007,0.00136,0.00007,0.00148,0.04584,0.00226,0.05,6.40656,1.88137,0.09283,2.05218
0.17098,0.0013,0.00007,0.00147,0.04375,0.00225,0.04955,6.44092,1.81501,0.09355,2.05551
0.1719,0.00142,0.00007,0.00145,0.04806,0.00226,0.0491,6.47523,2.01525,0.09467,2.05883
0.17281,0.00135,0.00007,0.00144,0.04563,0.00223,0.04866,6.50955,1.93354,0.0946,2.06213
0.17372,0.0012,0.00007,0.00143,0.0407,0.00223,0.04823,6.54391,1.74278,0.09568,2.06542
0.17463,0.00137,0.00007,0.00142,0.04614,0.00224,0.04781,6.57822,1.99668,0.09683,2.0687
0.17554,0.00123,0.00007,0.0014,0.04145,0.00225,0.04739,6.61254,1.81229,0.09832,2.07196
0.17645,0.00134,0.00007,0.00139,0.04532,0.00225,0.04697,6.64689,2.00213,0.09957,2.07521
0.17736,0.00117,0.00007,0.00138,0.03954,0.00223,0.04656,6.68121,1.76512,0.09965,2.07845
0.17827,0.00139,0.00007,0.00137,0.0471,0.00223,0.04616,6.71553,2.12402,0.10056,2.08168
0.17919,0.00133,0.00007,0.00135,0.04492,0.00223,0.04576,6.74984,2.04679,0.10164,2.08489
0.1801,0.00122,0.00007,0.00134,0.04105,0.00226,0.04537,6.7842,1.88932,0.10408,2.0881
0.18101,0.00124,0.00007,0.00133,0.04182,0.00232,0.04498,6.81852,1.94444,0.1077,2.0913
0.18192,0.00104,0.00007,0.00132,0.03507,0.00235,0.0446,6.85283,1.64681,0.1105,2.09449
0.18283,0.00129,0.00007,0.00131,0.04347,0.00237,0.04422,6.88719,2.0619,0.1125,2.09767
0.18374,0.00119,0.00007,0.0013,0.04017,0.0024,0.04385,6.9215,1.92439,0.1149,2.10084
0.18465,0.00122,0.00007,0.00129,0.04137,0.0024,0.04349,6.95582,2.00151,0.11627,2.10399
0.18557,0.00125,0.00007,0.00128,0.04219,0.00246,0.04312,6.99014,2.06159,0.12014,2.10714
0.18648,0.00115,0.00007,0.00127,0.03875,0.00246,0.04277,7.02449,1.91183,0.12151,2.11028
0.18739,0.00122,0.00007,0.00126,0.04119,0.00251,0.04242,7.05881,2.0526,0.12485,2.11341
0.1883,0.00117,0.00007,0.00125,0.03961,0.00247,0.04207,7.09313,1.99276,0.12434,2.11652
0.18921,0.00117,0.00007,0.00124,0.03954,0.00242,0.04172,7.12744,2.0085,0.1227,2.11963
0.19012,0.00109,0.00007,0.00123,0.03696,0.00238,0.04139,7.16176,1.89583,0.12222,2.12273
0.19103,0.00113,0.00007,0.00122,0.03809,0.00236,0.04105,7.19611,1.97224,0.12247,2.12582
0.19194,0.00117,0.00007,0.00121,0.03968,0.00234,0.04072,7.23043,2.07442,0.12212,2.1289
0.19285,0.00099,0.00007,0.0012,0.03359,0.00232,0.0404,7.26475,1.77263,0.12262,2.13198
0.19377,0.00108,0.00007,0.00119,0.03637,0.0023,0.04007,7.29907,1.93764,0.12272,2.13504
0.19468,0.00109,0.00007,0.00118,0.03685,0.00229,0.03976,7.33338,1.98194,0.12324,2.1381
0.19559,0.00115,0.00007,0.00117,0.03889,0.00229,0.03944,7.3677,2.11114,0.12434,2.14115
0.1965,0.00111,0.00007,0.00116,0.03766,0.00229,0.03913,7.40202,2.06321,0.12563,2.1442
0.19741,0.00112,0.00007,0.00115,0.0377,0.00228,0.03883,7.43637,2.08504,0.12614,2.14724
0.19832,0.00103,0.00007,0.00114,0.03476,0.00227,0.03853,7.47069,1.94005,0.12677,2.15026
0.19923,0.00104,0.00007,0.00113,0.03496,0.00224,0.03823,7.505,1.9692,0.12607,2.15328
0.20014,0.00101,0.00007,0.00112,0.03426,0.00224,0.03794,7.53932,1.94739,0.12733,2.15629
0.20106,0.00102,0.00007,0.00111,0.03431,0.00226,0.03764,7.57364,1.96816,0.12951,2.15929
0.20197,0.00099,0.00007,0.00111,0.03338,0.00223,0.03736,7.60795,1.93189,0.12928,2.16229
0.20288,0.00094,0.00007,0.0011,0.03168,0.00223,0.03707,7.64227,1.85053,0.13029,2.16527
0.20379,0.001,0.00007,0.00109,0.03365,0.00223,0.03679,7.67659,1.98328,0.13152,2.16825
0.2047,0.00102,0.00007,0.00108,0.03437,0.00222,0.03652,7.71091,2.04365,0.13175,2.17122
0.20561,0.00097,0.00007,0.00107,0.03267,0.00221,0.03624,7.74522,1.95996,0.13252,2.17418
0.20652,0.00094,0.00007,0.00107,0.0319,0.00222,0.03597,7.77954,1.93066,0.13465,2.17714
0.20743,0.00103,0.00007,0.00106,0.03491,0.00221,0.03571,7.81386,2.13174,0.13486,2.18008
0.20834,0.00087,0.00007,0.00105,0.02924,0.0022,0.03544,7.84817,1.8008,0.13555,2.18303
0.20925,0.0008,0.00007,0.00104,0.02713,0.0022,0.03518,7.88249,1.68557,0.13681,2.18596
0.21016,0.00096,0.00006,0.00103,0.03254,0.00219,0.03492,7.91681,2.03946,0.1371,2.18888
0.21108,0.00093,0.00006,0.00103,0.03148,0.00217,0.03467,7.95112,1.98993,0.13735,2.1918
0.21199,0.00093,0.00006,0.00102,0.03142,0.00218,0.03442,7.98544,2.00367,0.1393,2.19471
0.2129,0.00095,0.00006,0.00101,0.03211,0.00219,0.03417,8.01976,2.06538,0.14056,2.19761
0.21381,0.00099,0.00006,0.001,0.03345,0.00218,0.03392,8.05407,2.1698,0.14128,2.2005
0.21472,0.0009,0.00006,0.001,0.0303,0.00217,0.03368,8.08839,1.98249,0.14186,2.20338
0.21563,0.00089,0.00006,0.00099,0.03011,0.00215,0.03344,8.12271,1.98633,0.14171,2.20625
0.21654,0.00094,0.00006,0.00098,0.03166,0.00216,0.0332,8.15703,2.10643,0.14361,2.20911
0.21745,0.00092,0.00006,0.00098,0.03107,0.00216,0.03297,8.1913,2.08471,0.14486,2.21197
0.21836,0.0009,0.00006,0.00097,0.0305,0.00217,0.03273,8.22562,2.06372,0.14687,2.21481
0.21927,0.00082,0.00006,0.00096,0.02763,0.00214,0.0325,8.25994,1.88486,0.14613,2.21765
0.22018,0.00097,0.00006,0.00096,0.03285,0.00214,0.03228,8.29426,2.2598,0.14743,2.22048
0.2211,0.00079,0.00006,0.00095,0.02675,0.00213,0.03205,8.32857,1.85534,0.14766,2.22331
0.22201,0.00094,0.00006,0.00094,0.0318,0.00213,0.03183,8.36289,2.22401,0.14929,2.22612
0.22292,0.00083,0.00006,0.00094,0.02793,0.00214,0.03161,8.39717,1.96965,0.15102,2.22893
0.22383,0.00082,0.00006,0.00093,0.0277,0.00212,0.03139,8.43149,1.96954,0.15077,2.23172
0.22474,0.00075,0.00006,0.00092,0.02526,0.00211,0.03118,8.4658,1.8104,0.15121,2.23451
0.22565,0.0008,0.00006,0.00092,0.02693,0.0021,0.03097,8.50012,1.94577,0.15199,2.23729
0.22656,0.0008,0.00006,0.00091,0.02685,0.0021,0.03075,8.53444,1.95579,0.15324,2.24006
0.22747,0.00079,0.00006,0.0009,0.02656,0.0021,0.03055,8.56872,1.94979,0.15436,2.24282
0.22838,0.00074,0.00006,0.0009,0.02498,0.00209,0.03034,8.60303,1.84867,0.15481,2.24557
0.22929,0.00069,0.00006,0.00089,0.02332,0.00208,0.03014,8.63735,1.73972,0.15537,2.24832
0.2302,0.00069,0.00006,0.00089,0.02332,0.00208,0.02994,8.67167,1.7533,0.15618,2.25105
0.23111,0.00081,0.00006,0.00088,0.02736,0.00206,0.02974,8.70595,2.07366,0.15633,2.25377
0.23203,0.00076,0.00006,0.00087,0.02557,0.00206,0.02954,8.74026,1.95333,0.15762,2.25648
0.23294,0.0009,0.00006,0.00087,0.03055,0.00206,0.02934,8.77458,2.3523,0.15843,2.25918
0.23385,0.00071,0.00006,0.00086,0.02411,0.00206,0.02915,8.80886,1.87077,0.15954,2.26187
0.23476,0.00065,0.00006,0.00086,0.02185,0.00207,0.02896,8.84317,1.70894,0.16162,2.26455
0.23567,0.00078,0.00006,0.00085,0.02623,0.00206,0.02877,8.87749,2.06701,0.16228,2.26721
0.23658,0.00081,0.00006,0.00085,0.02749,0.00203,0.02858,8.91177,2.18317,0.16142,2.26987
0.23749,0.0007,0.00006,0.00084,0.0235,0.00205,0.02839,8.94609,1.8809,0.16431,2.27251
0.2384,0.00076,0.00006,0.00084,0.02564,0.00206,0.02821,8.9804,2.06771,0.16588,2.27513
0.23931,0.00077,0.00006,0.00083,0.02595,0.00205,0.02803,9.01468,2.10869,0.16658,2.27774
0.24022,0.00076,0.00006,0.00082,0.02573,0.00204,0.02785,9.049,2.10715,0.16722,2.28034
0.24113,0.00065,0.00006,0.00082,0.02183,0.00204,0.02767,9.08328,1.80099,0.16861,2.28292
0.24204,0.00068,0.00006,0.00081,0.02309,0.00203,0.02749,9.1176,1.91914,0.16858,2.28549
0.24295,0.00072,0.00006,0.00081,0.02417,0.00203,0.02732,9.15188,2.02407,0.17025,2.28804
0.24386,0.00075,0.00006,0.0008,0.02533,0.00204,0.02714,9.18619,2.13736,0.17191,2.29058
0.24477,0.00081,0.00006,0.0008,0.02721,0.00203,0.02697,9.22051,2.31305,0.17279,2.29311
0.24568,0.00067,0.00006,0.00079,0.02255,0.00202,0.0268,9.25479,1.9316,0.17344,2.29562
0.2466,0.00072,0.00006,0.00079,0.02419,0.00201,0.02663,9.28911,2.08719,0.17374,2.29812
0.24751,0.00073,0.00006,0.00078,0.02481,0.00201,0.02647,9.32339,2.15619,0.1746,2.30061
0.24842,0.00076,0.00006,0.00078,0.0256,0.00201,0.0263,9.3577,2.24148,0.17618,2.30308
0.24933,0.00067,0.00006,0.00077,0.02255,0.00203,0.02614,9.39198,1.98869,0.17913,2.30554
0.25024,0.00074,0.00006,0.00077,0.02503,0.00201,0.02597,9.42626,2.22367,0.17852,2.30799
0.25115,0.00069,0.00006,0.00076,0.02336,0.00201,0.02581,9.46058,2.0909,0.17975,2.31042
0.25206,0.0006,0.00006,0.00076,0.02025,0.002,0.02565,9.49486,1.82602,0.18018,2.31285
0.25297,0.0007,0.00006,0.00075,0.0235,0.002,0.0255,9.52917,2.1341,0.18152,2.31526
0.25388,0.00068,0.00006,0.00075,0.02285,0.00199,0.02534,9.56345,2.09008,0.18192,2.31765
0.25479,0.00063,0.00006,0.00075,0.0213,0.002,0.02519,9.59777,1.96251,0.18468,2.32004
0.2557,0.0007,0.00006,0.00074,0.02358,0.00199,0.02503,9.63205,2.188,0.18474,2.32241
0.25661,0.0006,0.00006,0.00074,0.02034,0.002,0.02488,9.66633,1.90092,0.18685,2.32477
0.25752,0.00069,0.00006,0.00073,0.02314,0.002,0.02473,9.70065,2.17729,0.1883,2.32712
0.25843,0.00064,0.00006,0.00073,0.0217,0.00199,0.02458,9.73492,2.05624,0.18883,2.32945
0.25934,0.00071,0.00006,0.00072,0.02412,0.00199,0.02443,9.7692,2.30221,0.18957,2.33178
0.26025,0.00065,0.00006,0.00072,0.0221,0.00198,0.02429,9.80352,2.124,0.19049,2.33409
0.26116,0.00067,0.00006,0.00071,0.02262,0.00198,0.02414,9.8378,2.18888,0.19155,2.33639
0.26207,0.00078,0.00006,0.00071,0.02626,0.00196,0.024,9.87208,2.55896,0.1913,2.33867
0.26298,0.00068,0.00006,0.00071,0.02298,0.00197,0.02385,9.9064,2.255,0.1932,2.34094
0.26389,0.00067,0.00006,0.0007,0.02262,0.00197,0.02371,9.94068,2.2355,0.19427,2.3432
0.2648,0.00065,0.00006,0.0007,0.02186,0.00197,0.02357,9.97495,2.17462,0.19612,2.34545
0.26571,0.0006,0.00006,0.00069,0.02027,0.00196,0.02343,10.00923,2.03102,0.19682,2.34768
0.26662,0.0006,0.00006,0.00069,0.02035,0.00196,0.0233,10.04355,2.05263,0.19784,2.34991
0.26753,0.00062,0.00006,0.00069,0.02102,0.00195,0.02316,10.07783,2.13523,0.19769,2.35211
0.26844,0.0005,0.00006,0.00068,0.01692,0.00196,0.02302,10.11211,1.73045,0.20016,2.35431
0.26935,0.00059,0.00006,0.00068,0.01999,0.00195,0.02289,10.14639,2.05784,0.20044,2.35649
0.27026,0.0006,0.00006,0.00067,0.02014,0.00195,0.02276,10.18067,2.08721,0.20254,2.35867
0.27117,0.00063,0.00006,0.00067,0.02135,0.00195,0.02263,10.21498,2.22756,0.2031,2.36083
0.27208,0.00061,0.00006,0.00067,0.02061,0.00195,0.02249,10.24926,2.16453,0.20485,2.36299
0.27299,0.00065,0.00006,0.00066,0.02209,0.00194,0.02237,10.28354,2.33643,0.20554,2.36513
0.2739,0.00053,0.00006,0.00066,0.01778,0.00194,0.02224,10.31782,1.89256,0.20659,2.36727
0.27481,0.00059,0.00006,0.00065,0.01988,0.00193,0.02211,10.3521,2.13028,0.20699,2.3694
0.27572,0.00069,0.00006,0.00065,0.02339,0.00194,0.02198,10.38638,2.52285,0.20912,2.37152
0.27663,0.00046,0.00006,0.00065,0.01569,0.00194,0.02186,10.42066,1.7039,0.21081,2.37363
0.27754,0.00069,0.00006,0.00064,0.02332,0.00194,0.02173,10.45494,2.5492,0.21156,2.37574
0.27845,0.00056,0.00006,0.00064,0.01905,0.00193,0.02161,10.48922,2.09556,0.21208,2.37784
0.27936,0.00057,0.00006,0.00064,0.01911,0.00192,0.02149,10.5235,2.11635,0.21264,2.37993
0.28027,0.00056,0.00006,0.00063,0.01902,0.00192,0.02137,10.55778,2.12058,0.21412,2.38202
0.28118,0.00048,0.00006,0.00063,0.01625,0.00192,0.02125,10.59206,1.8234,0.21519,2.3841
0.28209,0.00057,0.00006,0.00063,0.0194,0.00193,0.02113,10.62634,2.19119,0.21795,2.38618
0.283,0.00068,0.00006,0.00062,0.02311,0.00191,0.02101,10.66061,2.62681,0.21672,2.38826
0.28391,0.00054,0.00006,0.00062,0.01817,0.00191,0.0209,10.69489,2.07792,0.21849,2.39032
0.28482,0.00049,0.00006,0.00062,0.0167,0.0019,0.02078,10.72917,1.92259,0.21851,2.39238
0.28573,0.00054,0.00006,0.00061,0.01825,0.00191,0.02067,10.76345,2.11395,0.22165,2.39444
0.28664,0.00046,0.00006,0.00061,0.0157,0.00191,0.02055,10.79773,1.83103,0.22284,2.39648
0.28755,0.0005,0.00006,0.00061,0.01697,0.00191,0.02044,10.83201,1.99065,0.22438,2.39852
0.28846,0.00054,0.00006,0.0006,0.01834,0.00191,0.02033,10.86629,2.16598,0.22505,2.40056
0.28937,0.00058,0.00006,0.0006,0.0195,0.0019,0.02022,10.90057,2.31751,0.22551,2.40258
0.29028,0.00052,0.00006,0.0006,0.01751,0.00191,0.02011,10.93485,2.09418,0.228,2.4046
0.29119,0.00066,0.00006,0.00059,0.02221,0.0019,0.02,10.96909,2.67174,0.22825,2.40661
0.2921,0.0005,0.00006,0.00059,0.01685,0.0019,0.01989,11.00337,2.04031,0.23014,2.40861
0.29301,0.00044,0.00006,0.00059,0.01486,0.00189,0.01979,11.03765,1.81024,0.23016,2.4106
0.29392,0.00058,0.00006,0.00058,0.01973,0.00189,0.01968,11.07193,2.41843,0.23174,2.41258
0.29483,0.00057,0.00006,0.00058,0.01921,0.00188,0.01958,11.10621,2.36975,0.23139,2.41456
0.29574,0.00053,0.00006,0.00058,0.01799,0.00189,0.01947,11.14045,2.23257,0.23412,2.41652
0.29665,0.00055,0.00006,0.00057,0.0187,0.00188,0.01937,11.17473,2.33513,0.23466,2.41847
0.29756,0.00065,0.00006,0.00057,0.02179,0.00189,0.01926,11.20901,2.73821,0.23745,2.42041
0.29847,0.00063,0.00006,0.00057,0.02119,0.00187,0.01916,11.24329,2.67919,0.23581,2.42235
0.29938,0.00046,0.00006,0.00056,0.01554,0.00188,0.01906,11.27753,1.97642,0.23914,2.42427
0.30029,0.00066,0.00006,0.00056,0.02229,0.00186,0.01896,11.31181,2.85244,0.23788,2.42618
0.3012,0.00051,0.00006,0.00056,0.01734,0.00186,0.01886,11.34609,2.23231,0.23998,2.42808
0.30211,0.00044,0.00006,0.00056,0.01483,0.00187,0.01876,11.38033,1.92119,0.24244,2.42997
0.30302,0.00053,0.00006,0.00055,0.01807,0.00187,0.01866,11.41461,2.35384,0.244,2.43185
0.30393,0.00042,0.00006,0.00055,0.01421,0.00187,0.01857,11.44889,1.86241,0.24475,2.43372
0.30484,0.00042,0.00006,0.00055,0.01425,0.00186,0.01847,11.48313,1.87884,0.24558,2.43557
0.30575,0.00047,0.00006,0.00054,0.01576,0.0019,0.01837,11.51741,2.09118,0.25255,2.43742
0.30666,0.00048,0.00006,0.00054,0.01626,0.00193,0.01828,11.55165,2.17029,0.25805,2.43924
0.30757,0.00054,0.00006,0.00054,0.01836,0.00199,0.01819,11.58593,2.46465,0.26771,2.44106
0.30848,0.00053,0.00006,0.00054,0.01801,0.002,0.01809,11.62021,2.43215,0.27064,2.44287
0.30939,0.00053,0.00006,0.00053,0.01804,0.00201,0.018,11.65445,2.45006,0.27348,2.44466
0.3103,0.00046,0.00006,0.00053,0.0156,0.00202,0.01791,11.68873,2.13122,0.27651,2.44644
0.31121,0.0005,0.00006,0.00053,0.01705,0.00204,0.01781,11.72297,2.34362,0.27983,2.4482
0.31212,0.00044,0.00006,0.00052,0.01489,0.00206,0.01772,11.75725,2.05897,0.28479,2.44996
0.31302,0.00046,0.00006,0.00052,0.01551,0.00209,0.01763,11.79149,2.15614,0.2908,2.4517
0.31394,0.00052,0.00006,0.00052,0.01753,0.00204,0.01754,11.82577,2.45206,0.2857,2.45344
0.31484,0.00048,0.00006,0.00052,0.01628,0.002,0.01745,11.86001,2.29028,0.28182,2.45515
0.31575,0.00054,0.00006,0.00051,0.01818,0.00196,0.01737,11.89425,2.57196,0.27751,2.45686
0.31666,0.00052,0.00006,0.00051,0.01754,0.00198,0.01728,11.92853,2.49555,0.28133,2.45856
0.31757,0.00047,0.00006,0.00051,0.01603,0.00195,0.01719,11.96277,2.29377,0.27909,2.46024
0.31848,0.00041,0.00006,0.00051,0.0139,0.00196,0.01711,11.99705,2.00027,0.28172,2.46191
0.31939,0.0005,0.00006,0.0005,0.01696,0.00194,0.01702,12.03129,2.45484,0.28086,2.46357
0.3203,0.00054,0.00006,0.0005,0.01812,0.00194,0.01693,12.06554,2.63733,0.28183,2.46522
0.32121,0.00056,0.00006,0.0005,0.01901,0.00192,0.01685,12.09981,2.78301,0.28081,2.46686
0.32212,0.00054,0.00006,0.0005,0.01819,0.00192,0.01677,12.13406,2.6781,0.2826,2.4685
0.32303,0.00046,0.00006,0.00049,0.0154,0.00192,0.01668,12.1683,2.28047,0.28372,2.47014
0.32394,0.00055,0.00006,0.00049,0.01866,0.00191,0.0166,12.20258,2.77823,0.28401,2.47178
0.32485,0.00049,0.00006,0.00049,0.01667,0.00191,0.01652,12.23682,2.49568,0.28672,2.47342
0.32576,0.0005,0.00006,0.00049,0.01688,0.0019,0.01644,12.27106,2.54137,0.28573,2.47506
0.32666,0.00045,0.00006,0.00048,0.01505,0.00189,0.01636,12.3053,2.2789,0.28578,2.47672
0.32758,0.00038,0.00006,0.00048,0.01286,0.00188,0.01628,12.33958,1.95832,0.28658,2.47838
0.32848,0.00046,0.00006,0.00048,0.01537,0.00188,0.0162,12.37382,2.35328,0.28817,2.48007
0.32939,0.00039,0.00006,0.00048,0.01327,0.00188,0.01612,12.40806,2.04248,0.2888,2.48177
0.3303,0.00043,0.00006,0.00047,0.01446,0.00188,0.01604,12.44231,2.23832,0.29159,2.48349
0.33121,0.00034,0.00006,0.00047,0.01139,0.00187,0.01597,12.47655,1.77379,0.29032,2.48523
0.33212,0.00041,0.00006,0.00047,0.01378,0.00186,0.01589,12.51079,2.15608,0.29187,2.487
0.33303,0.00041,0.00005,0.00047,0.0137,0.00185,0.01581,12.54507,2.15641,0.29158,2.4888
0.33394,0.00056,0.00006,0.00047,0.01905,0.00187,0.01574,12.57931,3.01402,0.29627,2.49063
0.33485,0.0004,0.00005,0.00046,0.0136,0.00185,0.01567,12.61355,2.16313,0.2943,2.4925
0.33576,0.00045,0.00005,0.00046,0.01537,0.00185,0.01559,12.64779,2.45792,0.29586,2.4944
0.33667,0.00039,0.00005,0.00046,0.01334,0.00182,0.01552,12.68203,2.14476,0.29294,2.49633
0.33758,0.0005,0.00005,0.00046,0.01678,0.00182,0.01545,12.71628,2.71316,0.29377,2.49831
0.33848,0.00048,0.00005,0.00046,0.01631,0.00183,0.01538,12.75052,2.65126,0.29692,2.50032
0.33939,0.00042,0.00005,0.00045,0.01426,0.00183,0.01531,12.78476,2.33049,0.29853,2.50237
0.3403,0.0004,0.00005,0.00045,0.0134,0.00182,0.01524,12.819,2.20236,0.2991,2.50447
0.34121,0.00039,0.00005,0.00045,0.01314,0.00182,0.01517,12.85324,2.17014,0.30064,2.50661
0.34212,0.00048,0.00005,0.00045,0.01618,0.00181,0.01511,12.88748,2.68731,0.30139,2.50879
0.34303,0.00039,0.00005,0.00045,0.01316,0.00185,0.01504,12.92173,2.19676,0.3097,2.51103
0.34394,0.00051,0.00006,0.00044,0.01716,0.00189,0.01497,12.95597,2.88025,0.31793,2.51331
0.34485,0.00044,0.00006,0.00044,0.01489,0.00192,0.01491,12.99021,2.51274,0.32472,2.51564
0.34575,0.00049,0.00006,0.00044,0.0166,0.00194,0.01484,13.02441,2.81558,0.32925,2.51803
0.34666,0.00042,0.00006,0.00044,0.01405,0.00197,0.01478,13.05865,2.39551,0.33601,2.52047
0.34757,0.00049,0.00006,0.00044,0.01639,0.00196,0.01472,13.0929,2.80901,0.33656,2.52297
0.34848,0.00047,0.00006,0.00043,0.01599,0.00196,0.01466,13.12714,2.75488,0.33741,2.52553
0.34939,0.00034,0.00006,0.00043,0.01138,0.00199,0.01459,13.16138,1.97142,0.34436,2.52815
0.3503,0.00039,0.00006,0.00043,0.01326,0.00198,0.01453,13.19562,2.30899,0.34552,2.53084
0.35121,0.00041,0.00006,0.00043,0.01398,0.002,0.01448,13.22982,2.44686,0.34967,2.53359
0.35212,0.00035,0.00006,0.00043,0.01192,0.00199,0.01442,13.26407,2.09775,0.34946,2.53641
0.35303,0.00032,0.00006,0.00043,0.01067,0.00199,0.01436,13.29831,1.88767,0.35238,2.5393
0.35393,0.00037,0.00006,0.00042,0.01246,0.00199,0.0143,13.33255,2.2141,0.35375,2.54226
0.35484,0.00034,0.00006,0.00042,0.01143,0.00201,0.01425,13.36675,2.04223,0.3589,2.5453
0.35575,0.00037,0.00006,0.00042,0.01243,0.00203,0.01419,13.40099,2.23142,0.36512,2.54842
0.35666,0.0004,0.00006,0.00042,0.01357,0.00201,0.01414,13.43524,2.44998,0.36309,2.55162
0.35757,0.00033,0.00006,0.00042,0.01122,0.00201,0.01408,13.46944,2.03546,0.36531,2.5549
0.35848,0.00035,0.00006,0.00042,0.01167,0.002,0.01403,13.50368,2.12765,0.36529,2.55827
0.35939,0.00042,0.00006,0.00041,0.01434,0.00202,0.01398,13.53792,2.62859,0.3711,2.56173
0.36029,0.00041,0.00006,0.00041,0.01397,0.00203,0.01393,13.57213,2.57372,0.37352,2.56527
0.3612,0.00052,0.00006,0.00041,0.01742,0.00204,0.01388,13.60637,3.22437,0.37732,2.56892
0.36211,0.00041,0.00006,0.00041,0.01401,0.00203,0.01383,13.64057,2.60655,0.37823,2.57266
0.36302,0.00038,0.00006,0.00041,0.01296,0.00203,0.01378,13.67481,2.42419,0.38011,2.57651
0.36393,0.00057,0.00006,0.00041,0.01937,0.00202,0.01373,13.70902,3.64112,0.37994,2.58046
0.36484,0.00044,0.00006,0.00041,0.01491,0.00204,0.01368,13.74326,2.81658,0.38535,2.58453
0.36575,0.00038,0.00006,0.0004,0.01294,0.00203,0.01364,13.77746,2.45654,0.38592,2.58872
0.36666,0.00039,0.00006,0.0004,0.01309,0.00205,0.01359,13.8117,2.49728,0.39054,2.59302
0.36756,0.00033,0.00006,0.0004,0.01116,0.00204,0.01355,13.84591,2.13892,0.39056,2.59745
0.36847,0.00051,0.00006,0.0004,0.01711,0.00204,0.01351,13.88015,3.29553,0.39351,2.60201
0.36938,0.00043,0.00006,0.0004,0.01462,0.00204,0.01346,13.91435,2.83058,0.39536,2.60669
0.37029,0.00037,0.00006,0.0004,0.01239,0.00205,0.01342,13.9486,2.4115,0.39851,2.61152
0.3712,0.00038,0.00006,0.0004,0.01289,0.00205,0.01338,13.9828,2.5207,0.40159,2.61649
0.37211,0.00041,0.00006,0.0004,0.01369,0.00206,0.01334,14.017,2.68937,0.40411,2.6216
0.37301,0.00038,0.00006,0.00039,0.01277,0.00207,0.0133,14.05124,2.52188,0.40883,2.62687
0.37392,0.00027,0.00006,0.00039,0.00912,0.00206,0.01327,14.08545,1.81028,0.40864,2.63228
0.37483,0.0003,0.00006,0.00039,0.01005,0.00206,0.01323,14.11965,2.00421,0.41075,2.63786
0.37574,0.00039,0.00006,0.00039,0.01305,0.00205,0.0132,14.15389,2.61407,0.4109,2.6436
0.37665,0.00044,0.00006,0.00039,0.0147,0.00207,0.01316,14.1881,2.95927,0.41644,2.64951
0.37755,0.00035,0.00006,0.00039,0.01187,0.00208,0.01313,14.2223,2.40106,0.41977,2.65559
0.37846,0.00036,0.00006,0.00039,0.01219,0.00207,0.0131,14.25651,2.47767,0.42165,2.66185
0.37937,0.00037,0.00006,0.00039,0.01259,0.00204,0.01307,14.29071,2.57082,0.41726,2.66829
0.38028,0.00035,0.00006,0.00039,0.01199,0.00206,0.01304,14.32495,2.46029,0.42373,2.67492
0.38119,0.00053,0.00006,0.00039,0.01797,0.00206,0.01301,14.35916,3.70438,0.42501,2.68174
0.3821,0.00037,0.00006,0.00038,0.01255,0.00209,0.01298,14.39336,2.60049,0.43281,2.68875
0.383,0.00042,0.00006,0.00038,0.01424,0.00207,0.01295,14.42756,2.96462,0.43072,2.69596
0.38391,0.00039,0.00006,0.00038,0.01312,0.00208,0.01293,14.46177,2.74386,0.43519,2.70338
0.38482,0.00027,0.00006,0.00038,0.00921,0.00206,0.0129,14.49597,1.93437,0.43359,2.71102
0.38573,0.00029,0.00006,0.00038,0.00983,0.00207,0.01288,14.53017,2.07619,0.43666,2.71886
0.38664,0.00043,0.00006,0.00038,0.01439,0.00209,0.01286,14.56438,3.0531,0.44323,2.72693
0.38754,0.00038,0.00006,0.00038,0.01293,0.00209,0.01283,14.59862,2.75575,0.44445,2.73524
0.38845,0.00042,0.00006,0.00038,0.01416,0.00208,0.01281,14.63279,3.03288,0.44447,2.74375
0.38936,0.00043,0.00006,0.00038,0.01468,0.00207,0.0128,14.66699,3.15737,0.44616,2.7525
0.39027,0.0003,0.00006,0.00038,0.01005,0.00206,0.01278,14.70123,2.17219,0.44474,2.76151
0.39118,0.00035,0.00006,0.00038,0.01175,0.00206,0.01276,14.7354,2.55129,0.44746,2.77073
0.39208,0.00037,0.00006,0.00038,0.01237,0.00208,0.01275,14.7696,2.6978,0.45342,2.78022
0.39299,0.00026,0.00006,0.00038,0.00885,0.00208,0.01273,14.80381,1.93938,0.45528,2.78995
0.3939,0.00031,0.00006,0.00038,0.01055,0.00209,0.01272,14.83801,2.32199,0.45988,2.79994
0.39481,0.0003,0.00006,0.00038,0.01002,0.00208,0.01271,14.87221,2.21724,0.45928,2.81019
0.39572,0.00024,0.00006,0.00038,0.00796,0.00206,0.01269,14.90642,1.7692,0.45675,2.8207
0.39662,0.00032,0.00006,0.00038,0.01098,0.00206,0.01268,14.94062,2.45026,0.45981,2.83149
0.39753,0.00026,0.00006,0.00038,0.00868,0.00209,0.01268,14.97483,1.94545,0.46807,2.84255
0.39844,0.00042,0.00006,0.00038,0.01404,0.00209,0.01267,15.00899,3.16173,0.47016,2.85387
0.39935,0.00038,0.00006,0.00037,0.01279,0.00208,0.01266,15.0432,2.89411,0.4701,2.86549
0.40026,0.00023,0.00006,0.00037,0.00786,0.00208,0.01266,15.0774,1.78727,0.47199,2.8774
0.40116,0.0003,0.00006,0.00037,0.01021,0.00207,0.01265,15.1116,2.33093,0.47316,2.88961
0.40207,0.00032,0.00006,0.00037,0.01086,0.00208,0.01265,15.14577,2.49022,0.47731,2.9021
0.40298,0.00029,0.00006,0.00037,0.00986,0.0021,0.01265,15.17997,2.27272,0.48454,2.91491
0.40389,0.00037,0.00006,0.00037,0.01262,0.00209,0.01265,15.21418,2.92211,0.4828,2.92803
0.40479,0.00029,0.00006,0.00037,0.00969,0.00208,0.01265,15.24834,2.25412,0.48419,2.94145
0.4057,0.00039,0.00006,0.00037,0.0133,0.00208,0.01265,15.28255,3.10587,0.48644,2.9552
0.40661,0.00031,0.00006,0.00037,0.01052,0.00208,0.01266,15.31675,2.46904,0.48778,2.96928
0.40752,0.00032,0.00006,0.00037,0.01092,0.00209,0.01266,15.35092,2.57341,0.49296,2.98368
0.40842,0.00033,0.00006,0.00038,0.01111,0.0021,0.01267,15.38512,2.62969,0.49595,2.99843
0.40933,0.00027,0.00006,0.00038,0.00905,0.0021,0.01267,15.41929,2.15239,0.49911,3.01351
0.41024,0.00044,0.00006,0.00038,0.01475,0.00208,0.01268,15.45349,3.52265,0.49766,3.02895
0.41115,0.00034,0.00006,0.00038,0.01156,0.00209,0.01269,15.4877,2.77345,0.50166,3.04475
0.41205,0.00026,0.00006,0.00038,0.00881,0.00208,0.0127,15.52186,2.1223,0.50066,3.06089
0.41296,0.00031,0.00006,0.00038,0.01045,0.0021,0.01272,15.55603,2.52759,0.50761,3.07739
0.41387,0.00035,0.00006,0.00038,0.01199,0.0021,0.01273,15.59023,2.91403,0.50921,3.09429
0.41478,0.00034,0.00006,0.00038,0.0115,0.00211,0.01275,15.6244,2.80694,0.51515,3.11155
0.41568,0.00035,0.00006,0.00038,0.01195,0.0021,0.01276,15.6586,2.92964,0.51507,3.12921
0.41659,0.00026,0.00006,0.00038,0.00881,0.00209,0.01278,15.69277,2.16863,0.51587,3.14724
0.4175,0.0002,0.00006,0.00038,0.0069,0.00209,0.0128,15.72693,1.70563,0.51755,3.16568
0.41841,0.00019,0.00006,0.00038,0.00639,0.0021,0.01282,15.76114,1.58714,0.52284,3.18454
0.41931,0.00029,0.00006,0.00038,0.00968,0.00211,0.01284,15.7953,2.41524,0.5266,3.2038
0.42022,0.00027,0.00006,0.00038,0.0091,0.00212,0.01286,15.82947,2.28027,0.53037,3.22348
0.42113,0.00036,0.00006,0.00038,0.01218,0.00211,0.01289,15.86367,3.0642,0.5301,3.2436
0.42203,0.00031,0.00006,0.00038,0.0104,0.0021,0.01291,15.89784,2.62732,0.53021,3.26414
0.42294,0.00019,0.00006,0.00038,0.00645,0.0021,0.01294,15.93201,1.6361,0.53217,3.28513
0.42385,0.00022,0.00006,0.00038,0.00738,0.00212,0.01297,15.96617,1.88046,0.5408,3.30656
0.42476,0.00041,0.00006,0.00038,0.01397,0.00213,0.013,16.00038,3.57604,0.54514,3.32847
0.42566,0.00031,0.00006,0.00039,0.01047,0.00212,0.01303,16.03454,2.69226,0.54579,3.35083
0.42657,0.00027,0.00006,0.00039,0.00897,0.00212,0.01307,16.06871,2.31547,0.5462,3.37365
0.42748,0.00025,0.00006,0.00039,0.00855,0.0021,0.0131,16.10288,2.21606,0.54349,3.39696
0.42839,0.00017,0.00006,0.00039,0.00577,0.00211,0.01314,16.13704,1.50187,0.5487,3.42076
0.42929,0.00039,0.00006,0.00039,0.01322,0.00213,0.01317,16.17121,3.45591,0.55645,3.44505
0.4302,0.00025,0.00006,0.00039,0.00857,0.00212,0.01321,16.20537,2.24964,0.55759,3.46985
0.43111,0.0003,0.00007,0.00039,0.01029,0.00221,0.01325,16.23958,2.7147,0.58266,3.49519
0.43201,0.00024,0.00007,0.00039,0.00817,0.00229,0.0133,16.27371,2.16433,0.60676,3.52099
0.43292,0.0003,0.00007,0.00039,0.01026,0.00233,0.01334,16.30787,2.72844,0.6202,3.54735
0.43383,0.00036,0.00007,0.0004,0.01228,0.0024,0.01338,16.34204,3.27837,0.64178,3.57424
0.43473,0.00027,0.00007,0.0004,0.00916,0.00243,0.01343,16.37624,2.45608,0.6511,3.60172
0.43564,0.00031,0.00007,0.0004,0.01063,0.00246,0.01348,16.41037,2.86331,0.66193,3.62968
0.43655,0.00044,0.00007,0.0004,0.01472,0.00251,0.01353,16.44454,3.98032,0.678,3.65824
0.43745,0.00035,0.00008,0.0004,0.01191,0.00255,0.01358,16.4787,3.23399,0.69145,3.68737
0.43836,0.00026,0.00008,0.0004,0.00895,0.00259,0.01363,16.51287,2.43979,0.70663,3.71709
0.43927,0.00032,0.00008,0.00041,0.01074,0.00264,0.01369,16.54704,2.94017,0.72223,3.74739
0.44018,0.00037,0.00008,0.00041,0.01266,0.00267,0.01374,16.5812,3.48203,0.73433,3.77829
0.44108,0.00035,0.00008,0.00041,0.01198,0.0027,0.0138,16.61537,3.30867,0.74446,3.80979
0.44199,0.00024,0.00008,0.00041,0.00813,0.00275,0.01386,16.6495,2.25267,0.76278,3.84188
0.4429,0.00046,0.00008,0.00041,0.01554,0.00277,0.01392,16.68366,4.32581,0.76996,3.87464
0.4438,0.00021,0.00008,0.00041,0.00694,0.00279,0.01398,16.71783,1.94023,0.77969,3.90802
0.44471,0.0004,0.00008,0.00042,0.01352,0.00283,0.01405,16.752,3.79273,0.79551,3.94206
0.44562,0.00025,0.00009,0.00042,0.0086,0.00292,0.01411,16.78612,2.42376,0.82184,3.97671
0.44652,0.00021,0.00009,0.00042,0.00723,0.00292,0.01418,16.82029,2.04651,0.82584,4.01207
0.44743,0.0004,0.00009,0.00042,0.01361,0.00297,0.01425,16.85446,3.86612,0.84484,4.0481
0.44834,0.00029,0.00009,0.00042,0.00985,0.00296,0.01432,16.88859,2.81063,0.84317,4.08478
0.44924,0.00041,0.00009,0.00043,0.01383,0.00302,0.01439,16.92275,3.96059,0.8636,4.12219
0.45015,0.00019,0.00009,0.00043,0.00626,0.00306,0.01447,16.95688,1.79921,0.87942,4.16027
0.45106,0.00041,0.00009,0.00043,0.01401,0.00313,0.01455,16.99105,4.04424,0.90474,4.19911
0.45196,0.00038,0.00009,0.00043,0.01279,0.00314,0.01462,17.02521,3.70751,0.90946,4.23867
0.45287,0.00042,0.00009,0.00044,0.01403,0.00315,0.0147,17.05934,4.08358,0.91784,4.27893
0.45378,0.00018,0.00009,0.00044,0.00622,0.00314,0.01478,17.09351,1.81612,0.91885,4.31997
0.45468,0.00025,0.00009,0.00044,0.00829,0.00315,0.01487,17.12764,2.43302,0.92542,4.36173
0.45559,0.00028,0.0001,0.00044,0.0096,0.00327,0.01495,17.1618,2.82799,0.96169,4.40429
0.45649,0.00033,0.0001,0.00045,0.011,0.00328,0.01504,17.19593,3.25175,0.96842,4.44758
0.4574,0.00039,0.0001,0.00045,0.01322,0.00328,0.01513,17.23006,3.92476,0.97354,4.49165
0.45831,0.00006,0.0001,0.00045,0.00219,0.00325,0.01522,17.26423,0.65222,0.96982,4.53657
0.45921,0.00011,0.0001,0.00045,0.00371,0.00325,0.01531,17.29835,1.10893,0.97212,4.58223
0.46012,0.0003,0.0001,0.00046,0.01001,0.00326,0.01541,17.33248,3.00797,0.97893,4.62871
0.46103,0.00031,0.0001,0.00046,0.01062,0.00335,0.0155,17.36665,3.20168,1.01167,4.67605
0.46193,0.00029,0.0001,0.00046,0.00973,0.00332,0.0156,17.40078,2.94689,1.00482,4.72418
0.46284,0.00011,0.0001,0.00046,0.00374,0.00336,0.0157,17.43491,1.13735,1.02125,4.77314
0.46375,0.00027,0.0001,0.00047,0.0092,0.00328,0.0158,17.46903,2.80739,1.00086,4.82295
0.46465,0.00044,0.0001,0.00047,0.01502,0.00331,0.01591,17.5032,4.60049,1.01445,4.87368
0.46556,0.00033,0.0001,0.00047,0.01101,0.00333,0.01601,17.53733,3.38557,1.02306,4.92523
0.46646,0.0002,0.0001,0.00048,0.0066,0.00345,0.01612,17.57146,2.03631,1.0649,4.97765
0.46737,0.00021,0.0001,0.00048,0.00722,0.00346,0.01623,17.60559,2.23866,1.07379,5.03096
0.46828,0.00039,0.0001,0.00048,0.01328,0.00345,0.01634,17.63972,4.13068,1.07376,5.08518
0.46918,0.00031,0.0001,0.00049,0.01044,0.00344,0.01646,17.67388,3.26161,1.07338,5.14037
0.47009,0.0002,0.0001,0.00049,0.00681,0.00344,0.01657,17.70801,2.13558,1.07956,5.19643
0.47099,0.00019,0.00011,0.00049,0.00627,0.00356,0.01669,17.74214,1.97449,1.12066,5.25342
0.4719,0.00033,0.00011,0.0005,0.01128,0.00364,0.01681,17.77627,3.56552,1.14986,5.31136
0.47281,0.00033,0.00011,0.0005,0.01131,0.00364,0.01693,17.8104,3.58856,1.15482,5.37026
0.47371,0.0001,0.00011,0.0005,0.00339,0.00359,0.01705,17.84452,1.07867,1.14333,5.43013
0.47462,0.00021,0.00011,0.00051,0.00713,0.00355,0.01718,17.87865,2.27929,1.134,5.49098
0.47552,0.00038,0.00011,0.00051,0.01268,0.0036,0.01731,17.91278,4.06829,1.15651,5.55283
0.47643,0.00011,0.00011,0.00052,0.00367,0.00373,0.01743,17.94687,1.18339,1.20006,5.61561
0.47734,0.00012,0.00011,0.00052,0.00412,0.00373,0.01757,17.981,1.33105,1.20496,5.67948
0.47824,0.00006,0.00011,0.00052,0.00214,0.00376,0.0177,18.01513,0.6947,1.22086,5.74438
0.47915,0.00006,0.00011,0.00053,0.00208,0.00373,0.01784,18.04926,0.67646,1.21659,5.81032
0.48005,0.00031,0.00011,0.00053,0.01046,0.00376,0.01797,18.08339,3.41948,1.22932,5.87732
0.48096,0.00021,0.00011,0.00054,0.00719,0.00378,0.01811,18.11751,2.3606,1.24207,5.94538
0.48187,0.00024,0.00011,0.00054,0.00814,0.00385,0.01825,18.15164,2.68122,1.2683,6.01451
0.48277,0.00022,0.00012,0.00054,0.00735,0.00389,0.0184,18.18573,2.43031,1.28555,6.08466
0.48368,0.0004,0.00012,0.00055,0.01361,0.00394,0.01854,18.21986,4.51937,1.30812,6.15598
0.48458,0.00032,0.00012,0.00055,0.01088,0.00397,0.01869,18.25399,3.62491,1.32435,6.22842
0.48549,0.00008,0.00012,0.00056,0.00281,0.00398,0.01884,18.28808,0.93821,1.33007,6.3019
0.48639,-0.00001,0.00012,0.00056,-0.0002,0.00398,0.01899,18.32221,-0.06706,1.33533,6.3766
0.4873,0.00029,0.00012,0.00057,0.00978,0.00405,0.01915,18.35634,3.29375,1.36507,6.45244
0.48821,0.00049,0.00012,0.00057,0.01643,0.00412,0.01931,18.39043,5.55764,1.39349,6.52936
0.48911,0.00021,0.00012,0.00058,0.00693,0.00412,0.01946,18.42456,2.35107,1.39895,6.60754
0.49002,0.00024,0.00012,0.00058,0.00804,0.00414,0.01963,18.45865,2.73792,1.41007,6.68682
0.49092,0.0002,0.00012,0.00059,0.00661,0.00416,0.01979,18.49278,2.25901,1.42166,6.76738
0.49183,0.00023,0.00013,0.00059,0.00783,0.00425,0.01995,18.52687,2.68782,1.45905,6.84906
0.49273,0.00026,0.00013,0.0006,0.00877,0.00426,0.02012,18.561,3.02208,1.46651,6.93205
0.49364,0.00016,0.00013,0.0006,0.00528,0.00432,0.02029,18.59509,1.82511,1.49204,7.01618
0.49454,0.00026,0.00013,0.00061,0.00864,0.00433,0.02046,18.62922,2.99789,1.50144,7.10166
0.49545,0.0001,0.00013,0.00061,0.00323,0.00438,0.02064,18.66331,1.12485,1.52716,7.18829
0.49635,0.00028,0.00013,0.00062,0.00929,0.00441,0.02081,18.6974,3.24731,1.54095,7.2762
0.49726,0.00021,0.00013,0.00062,0.00722,0.00447,0.02099,18.73153,2.53229,1.56977,7.36548
0.49817,0.00032,0.00013,0.00063,0.01084,0.00453,0.02117,18.76562,3.8179,1.59526,7.45597
0.49907,0.00012,0.00014,0.00063,0.00402,0.00458,0.02136,18.79971,1.41967,1.6186,7.54775
0.49998,0.00027,0.00014,0.00064,0.00904,0.00458,0.02154,18.83384,3.20717,1.62623,7.64097
0.50088,0.00034,0.00014,0.00064,0.01156,0.00462,0.02173,18.86793,4.11404,1.64504,7.73541
0.50179,0.00031,0.00014,0.00065,0.01048,0.00473,0.02192,18.90202,3.74348,1.69074,7.83119
0.50269,0.0001,0.00014,0.00065,0.00329,0.00478,0.02211,18.93611,1.18085,1.71497,7.92833
0.5036,0.00029,0.00014,0.00066,0.00964,0.00479,0.02231,18.97024,3.47089,1.72547,8.02695
0.5045,-0.00002,0.00014,0.00067,-0.00067,0.00482,0.0225,19.00433,-0.24354,1.74021,8.12685
0.50541,0.0002,0.00015,0.00067,0.00679,0.00493,0.0227,19.03842,2.45931,1.78783,8.22814
0.50631,0.00014,0.00015,0.00068,0.00485,0.005,0.0229,19.07251,1.76559,1.81899,8.33085
0.50722,0.00043,0.00015,0.00068,0.01448,0.00499,0.02311,19.1066,5.2873,1.82262,8.43497
0.50767,0.00021,0.00015,0.00069,0.00702,0.00508,0.02321,19.12367,2.56798,1.85735,8.48763