File: 2025/starling_2025/figures/experimental_comparison/saxs_scattering/experiment/ul11/mff_out.csv
#File Plotted Below: ul11.dat,,,,,,,,,,
,,,,,,,,,,
    #Fit from 0.01-0.15 with polymer MFF,,,,,,,,,,
#Initial search parameter for I0 = 0.00477929,,,,,,,,,,
#Initial search parameter for Rg = 30,,,,,,,,,,
#Initial search parameter for nu = 0.499881,,,,,,,,,,
#BestFit for I0 = 0.00489 +- 0.00004,,,,,,,,,,
#BestFit for I(0)/I0 = 1.00000 +- 0.00874,,,,,,,,,,
#BestFit for Rg = 25.98628 +- 0.30829,,,,,,,,,,
#BestFit for nu = 0.45784 +- 0.01583,,,,,,,,,,
#BestFit reduced chisquared = 1.01962,,,,,,,,,,
#-------------,,,,,,,,,,
#-------------,,,,,,,,,,
,,,,,,,,,,
    #q,I(q),Error,fit,I(q)/I0,Error/I0,fit/I0,qRg,((qRg)^2)I(q)/I0,((qRg)^2)*Error/I0,((qRg)^2)*fit/I0
0.00741,0.00731,0.0054,0.00483,1.49598,1.10563,0.98811,0.19261,0.0555,0.04102,0.03666
0.00798,0.00378,0.00399,0.00482,0.77249,0.81609,0.98603,0.20743,0.03324,0.03511,0.04242
0.00855,0.00456,0.00292,0.00481,0.93326,0.59823,0.98379,0.22224,0.0461,0.02955,0.04859
0.00912,0.00481,0.00224,0.0048,0.98467,0.45814,0.98141,0.23706,0.05534,0.02575,0.05515
0.00969,0.00504,0.0017,0.00478,1.03107,0.34872,0.97888,0.25187,0.06541,0.02212,0.0621
0.01026,0.00444,0.00122,0.00477,0.90914,0.25001,0.9762,0.26669,0.06466,0.01778,0.06943
0.01083,0.00549,0.00108,0.00476,1.12236,0.2207,0.97339,0.28151,0.08894,0.01749,0.07714
0.0114,0.00418,0.00086,0.00474,0.85588,0.17576,0.97043,0.29632,0.07515,0.01543,0.08521
0.01197,0.0044,0.0007,0.00473,0.90063,0.14371,0.96734,0.31114,0.08719,0.01391,0.09365
0.01254,0.00465,0.0006,0.00471,0.95194,0.12189,0.96411,0.32596,0.10114,0.01295,0.10243
0.01311,0.00514,0.00053,0.0047,1.05121,0.10771,0.96075,0.34077,0.12207,0.01251,0.11157
0.01368,0.005,0.0005,0.00468,1.02295,0.10223,0.95727,0.35559,0.12934,0.01293,0.12104
0.01425,0.00536,0.0004,0.00466,1.09675,0.08197,0.95366,0.3704,0.15047,0.01125,0.13084
0.01482,0.00439,0.00038,0.00464,0.89889,0.07787,0.94993,0.38522,0.13339,0.01155,0.14096
0.01539,0.00473,0.00035,0.00462,0.96757,0.07069,0.94608,0.40004,0.15484,0.01131,0.1514
0.01596,0.00485,0.00031,0.00461,0.99253,0.06269,0.94211,0.41485,0.17082,0.01079,0.16214
0.01653,0.0046,0.00029,0.00459,0.94083,0.05846,0.93802,0.42967,0.17369,0.01079,0.17317
0.0171,0.00455,0.00026,0.00456,0.93061,0.05393,0.93383,0.44448,0.18386,0.01066,0.18449
0.01767,0.00461,0.00027,0.00454,0.94304,0.05497,0.92953,0.4593,0.19894,0.0116,0.19609
0.01824,0.00433,0.00024,0.00452,0.88679,0.04975,0.92512,0.47412,0.19934,0.01118,0.20795
0.01881,0.00456,0.00023,0.0045,0.93217,0.04773,0.92061,0.48893,0.22284,0.01141,0.22008
0.01939,0.00434,0.00023,0.00448,0.88867,0.04719,0.916,0.50375,0.22551,0.01198,0.23245
0.01996,0.00437,0.00022,0.00445,0.89318,0.04457,0.91129,0.51856,0.24018,0.01198,0.24505
0.02053,0.00465,0.00022,0.00443,0.95049,0.0445,0.90649,0.53338,0.27041,0.01266,0.25789
0.0211,0.00428,0.00021,0.00441,0.87517,0.04236,0.9016,0.5482,0.26301,0.01273,0.27095
0.02167,0.00434,0.00021,0.00438,0.88886,0.04255,0.89661,0.56301,0.28175,0.01349,0.28421
0.02224,0.00436,0.0002,0.00436,0.89277,0.03993,0.89154,0.57783,0.29808,0.01333,0.29767
0.02281,0.00437,0.00019,0.00433,0.89465,0.03852,0.88639,0.59264,0.31422,0.01353,0.31132
0.02338,0.00415,0.00018,0.00431,0.84939,0.03722,0.88116,0.60746,0.31343,0.01373,0.32515
0.02395,0.00431,0.00018,0.00428,0.88151,0.03626,0.87585,0.62227,0.34134,0.01404,0.33915
0.02452,0.00385,0.00017,0.00425,0.78708,0.0352,0.87046,0.63709,0.31946,0.01429,0.35331
0.02509,0.00428,0.00017,0.00423,0.87561,0.0355,0.865,0.65191,0.37212,0.01509,0.36761
0.02566,0.00426,0.00017,0.0042,0.87182,0.03574,0.85947,0.66672,0.38754,0.01589,0.38205
0.02623,0.00407,0.00017,0.00417,0.83332,0.03503,0.85388,0.68154,0.38707,0.01627,0.39662
0.0268,0.00419,0.00016,0.00415,0.85795,0.03332,0.84822,0.69635,0.41603,0.01615,0.41131
0.02737,0.00389,0.00017,0.00412,0.79528,0.03436,0.8425,0.71117,0.40222,0.01738,0.4261
0.02794,0.00407,0.00016,0.00409,0.83333,0.03281,0.83672,0.72598,0.43921,0.01729,0.441
0.02851,0.00406,0.00016,0.00406,0.83004,0.03261,0.83089,0.7408,0.45551,0.0179,0.45598
0.02908,0.00428,0.00016,0.00403,0.87515,0.03271,0.825,0.75562,0.49967,0.01868,0.47104
0.02965,0.00387,0.00015,0.004,0.79121,0.0308,0.81906,0.77043,0.46963,0.01828,0.48617
0.03022,0.00415,0.00015,0.00397,0.84961,0.03159,0.81308,0.78525,0.52388,0.01948,0.50135
0.03079,0.00386,0.00014,0.00394,0.79022,0.02914,0.80705,0.80006,0.50582,0.01865,0.51659
0.03136,0.00398,0.00015,0.00392,0.81351,0.02991,0.80098,0.81488,0.54019,0.01986,0.53187
0.03193,0.0039,0.00014,0.00389,0.79873,0.02919,0.79487,0.82969,0.54984,0.0201,0.54718
0.0325,0.00365,0.00014,0.00386,0.74749,0.02917,0.78872,0.84451,0.53311,0.02081,0.56251
0.03307,0.00376,0.00015,0.00383,0.76883,0.02999,0.78254,0.85932,0.56773,0.02215,0.57786
0.03364,0.00392,0.00013,0.00379,0.80234,0.0276,0.77633,0.87414,0.61309,0.02109,0.59321
0.03421,0.0036,0.00014,0.00376,0.73612,0.02765,0.77009,0.88896,0.58171,0.02185,0.60856
0.03478,0.00385,0.00013,0.00373,0.78744,0.02691,0.76383,0.90377,0.64318,0.02198,0.6239
0.03535,0.00362,0.00013,0.0037,0.7412,0.02699,0.75755,0.91859,0.62543,0.02277,0.63922
0.03592,0.0036,0.00013,0.00367,0.73557,0.02722,0.75124,0.9334,0.64086,0.02372,0.65451
0.03649,0.00384,0.00013,0.00364,0.78626,0.02694,0.74492,0.94822,0.70694,0.02422,0.66977
0.03706,0.00363,0.00013,0.00361,0.74363,0.02685,0.73858,0.96303,0.68966,0.02491,0.68499
0.03763,0.00347,0.00013,0.00358,0.71054,0.02648,0.73224,0.97785,0.67941,0.02532,0.70016
0.0382,0.00358,0.00013,0.00355,0.73187,0.02661,0.72588,0.99266,0.72117,0.02622,0.71527
0.03877,0.00354,0.00013,0.00352,0.72488,0.02667,0.71952,1.00748,0.73577,0.02707,0.73032
0.03934,0.0034,0.00012,0.00349,0.69622,0.02551,0.71316,1.02229,0.72761,0.02666,0.74531
0.03991,0.00357,0.00013,0.00345,0.73135,0.02666,0.70679,1.03711,0.78663,0.02867,0.76022
0.04048,0.00331,0.00012,0.00342,0.67647,0.02506,0.70043,1.05192,0.74854,0.02773,0.77505
0.04105,0.00359,0.00012,0.00339,0.73492,0.02556,0.69406,1.06674,0.83629,0.02908,0.78979
0.04162,0.00322,0.00012,0.00336,0.65884,0.02529,0.6877,1.08155,0.77068,0.02958,0.80444
0.04219,0.00352,0.00012,0.00333,0.72107,0.02508,0.68134,1.09637,0.86674,0.03014,0.81899
0.04276,0.00318,0.00012,0.0033,0.6513,0.02541,0.67499,1.11118,0.80418,0.03137,0.83343
0.04333,0.00347,0.00012,0.00327,0.70999,0.02458,0.66864,1.126,0.90017,0.03116,0.84775
0.0439,0.00318,0.00012,0.00324,0.6505,0.02439,0.6623,1.14081,0.84659,0.03174,0.86196
0.04447,0.00318,0.00012,0.00321,0.65043,0.02433,0.65598,1.15563,0.86863,0.03249,0.87604
0.04504,0.00315,0.00012,0.00318,0.64483,0.02469,0.64966,1.17044,0.88337,0.03382,0.89
0.04561,0.00336,0.00012,0.00314,0.68712,0.02391,0.64336,1.18526,0.9653,0.03359,0.90382
0.04618,0.00322,0.00012,0.00311,0.65798,0.02363,0.63708,1.20007,0.94761,0.03404,0.9175
0.04675,0.00319,0.00012,0.00308,0.65254,0.02412,0.63081,1.21489,0.96312,0.0356,0.93104
0.04732,0.00299,0.00012,0.00305,0.61169,0.02366,0.62455,1.2297,0.92498,0.03578,0.94443
0.04789,0.00296,0.00011,0.00302,0.60558,0.02333,0.61832,1.24452,0.93793,0.03613,0.95767
0.04846,0.0031,0.00012,0.00299,0.63378,0.02369,0.61211,1.25933,1.00512,0.03757,0.97075
0.04903,0.00308,0.00012,0.00296,0.63012,0.02371,0.60592,1.27415,1.02297,0.03849,0.98368
0.0496,0.00279,0.00012,0.00293,0.57003,0.02418,0.59975,1.28896,0.94707,0.04017,0.99644
0.05017,0.00293,0.00012,0.0029,0.59848,0.02403,0.59361,1.30378,1.01731,0.04085,1.00904
0.05074,0.0029,0.00012,0.00287,0.59359,0.02451,0.5875,1.31859,1.03206,0.04261,1.02147
0.05131,0.00287,0.00012,0.00284,0.58651,0.02372,0.58141,1.3334,1.0428,0.04217,1.03374
0.05188,0.00266,0.00012,0.00281,0.54387,0.02356,0.57536,1.34822,0.9886,0.04282,1.04583
0.05245,0.00265,0.00012,0.00278,0.54202,0.02432,0.56934,1.36303,1.007,0.04519,1.05775
0.05302,0.00295,0.00012,0.00275,0.60347,0.02383,0.56335,1.37785,1.14567,0.04524,1.06949
0.05359,0.00271,0.00012,0.00272,0.55347,0.02399,0.55739,1.39266,1.07345,0.04653,1.08106
0.05416,0.00271,0.00011,0.0027,0.55444,0.02341,0.55147,1.40748,1.09834,0.04637,1.09246
0.05473,0.00265,0.00012,0.00267,0.54173,0.02418,0.54559,1.42229,1.09587,0.04892,1.10368
0.0553,0.00253,0.00012,0.00264,0.51758,0.02381,0.53975,1.4371,1.06895,0.04917,1.11472
0.05587,0.0027,0.00011,0.00261,0.55291,0.02329,0.53395,1.45192,1.16557,0.0491,1.12559
0.05644,0.00252,0.00012,0.00258,0.51457,0.0238,0.52819,1.46673,1.107,0.05121,1.13629
0.05701,0.00237,0.00011,0.00255,0.48386,0.02288,0.52247,1.48155,1.06207,0.05021,1.14681
0.05758,0.00263,0.00011,0.00253,0.53709,0.02336,0.5168,1.49636,1.20259,0.0523,1.15716
0.05815,0.00251,0.00011,0.0025,0.51424,0.0232,0.51117,1.51117,1.17434,0.05298,1.16734
0.05872,0.00232,0.00011,0.00247,0.47523,0.02277,0.5056,1.52599,1.10663,0.05303,1.17736
0.05929,0.00255,0.00012,0.00244,0.5212,0.02398,0.50007,1.5408,1.23736,0.05692,1.1872
0.05986,0.00223,0.00011,0.00242,0.45568,0.02327,0.49459,1.55562,1.10272,0.05631,1.19687
0.06043,0.00261,0.00012,0.00239,0.53321,0.02355,0.48915,1.57043,1.31503,0.05807,1.20637
0.061,0.00238,0.00011,0.00236,0.48738,0.02251,0.48376,1.58524,1.2248,0.05657,1.21569
0.06157,0.00255,0.00012,0.00234,0.52147,0.02375,0.47842,1.60006,1.33506,0.06081,1.22484
0.06214,0.00239,0.00012,0.00231,0.48862,0.02404,0.47313,1.61487,1.27422,0.06269,1.23382
0.06271,0.00249,0.00012,0.00229,0.50919,0.02371,0.46788,1.62969,1.35234,0.06298,1.24262
0.06328,0.00232,0.00012,0.00226,0.47413,0.02426,0.46268,1.6445,1.28224,0.0656,1.25125
0.06385,0.00213,0.00012,0.00224,0.43532,0.02381,0.45752,1.65931,1.19858,0.06555,1.25971
0.06442,0.00209,0.00012,0.00221,0.42783,0.02469,0.45242,1.67413,1.19908,0.06919,1.26799
0.06499,0.00214,0.00012,0.00219,0.43809,0.02445,0.44736,1.68894,1.24967,0.06975,1.2761
0.06556,0.00217,0.00012,0.00216,0.44365,0.02457,0.44235,1.70375,1.28783,0.07132,1.28403
0.06613,0.00225,0.00012,0.00214,0.45971,0.02504,0.43738,1.71857,1.35774,0.07395,1.29179
0.0667,0.00213,0.00012,0.00211,0.43503,0.02488,0.43246,1.73338,1.30711,0.07475,1.29938
0.06727,0.00214,0.00012,0.00209,0.43738,0.02504,0.42759,1.74819,1.33672,0.07654,1.3068
0.06784,0.00198,0.00012,0.00207,0.40508,0.02473,0.42277,1.76301,1.25908,0.07687,1.31404
0.06841,0.00191,0.00012,0.00204,0.38983,0.02455,0.41799,1.77782,1.2321,0.07758,1.32111
0.06898,0.00196,0.00012,0.00202,0.40057,0.02408,0.41326,1.79263,1.28725,0.07738,1.32802
0.06955,0.00208,0.00012,0.002,0.42522,0.02356,0.40857,1.80744,1.38912,0.07698,1.33475
0.07012,0.00171,0.00012,0.00197,0.35026,0.02452,0.40394,1.82226,1.16307,0.08141,1.34132
0.07069,0.00183,0.00012,0.00195,0.37342,0.02389,0.39935,1.83707,1.26023,0.08061,1.34773
0.07126,0.00201,0.00012,0.00193,0.4105,0.02438,0.3948,1.85188,1.4078,0.08361,1.35396
0.07183,0.00198,0.00012,0.00191,0.4054,0.02501,0.39031,1.8667,1.41263,0.08714,1.36004
0.0724,0.00172,0.00012,0.00189,0.35159,0.02464,0.38586,1.88151,1.24466,0.08723,1.36596
0.07297,0.0018,0.00012,0.00186,0.36867,0.0246,0.38145,1.89632,1.32576,0.08846,1.37171
0.07354,0.00189,0.00012,0.00184,0.38644,0.02445,0.37709,1.91113,1.41144,0.08932,1.37731
0.07411,0.00194,0.00012,0.00182,0.39701,0.02517,0.37278,1.92595,1.47262,0.09335,1.38276
0.07468,0.00174,0.00012,0.0018,0.35667,0.02448,0.36852,1.94076,1.34343,0.0922,1.38805
0.07525,0.00163,0.00012,0.00178,0.33424,0.02501,0.3643,1.95557,1.2782,0.09563,1.39319
0.07582,0.00191,0.00012,0.00176,0.39013,0.0246,0.36013,1.97038,1.51465,0.09551,1.39819
0.07639,0.00167,0.00012,0.00174,0.34196,0.02495,0.35601,1.9852,1.34767,0.09832,1.40304
0.07696,0.00179,0.00013,0.00172,0.36698,0.02562,0.35193,2.00001,1.46795,0.10248,1.40774
0.07753,0.00171,0.00012,0.0017,0.3494,0.02442,0.3479,2.01482,1.41841,0.09912,1.41231
0.0781,0.00153,0.00012,0.00168,0.31248,0.02552,0.34392,2.02963,1.28722,0.10514,1.41674
0.07867,0.00167,0.00012,0.00166,0.3419,0.02504,0.33998,2.04445,1.42908,0.10465,1.42103
0.07924,0.00168,0.00013,0.00164,0.34373,0.02558,0.33608,2.05926,1.4576,0.10849,1.42518
0.07981,0.00173,0.00012,0.00162,0.35318,0.025,0.33224,2.07407,1.51929,0.10756,1.4292
0.08038,0.00168,0.00012,0.00161,0.3431,0.02482,0.32843,2.08888,1.49711,0.10829,1.43309
0.08095,0.00166,0.00012,0.00159,0.33859,0.02552,0.32467,2.10369,1.49842,0.11294,1.43685
0.08152,0.00162,0.00012,0.00157,0.33181,0.02492,0.32096,2.11851,1.48918,0.11185,1.44048
0.08209,0.00157,0.00012,0.00155,0.32215,0.02545,0.31728,2.13332,1.4661,0.11584,1.44398
0.08266,0.00112,0.00012,0.00153,0.22901,0.02538,0.31366,2.14813,1.05675,0.11713,1.44735
0.08323,0.00169,0.00012,0.00152,0.34576,0.02513,0.31007,2.16294,1.61757,0.11755,1.4506
0.0838,0.00151,0.00012,0.0015,0.30976,0.02553,0.30653,2.17775,1.46909,0.12108,1.45373
0.08437,0.00147,0.00012,0.00148,0.30037,0.02519,0.30302,2.19256,1.44399,0.12108,1.45673
0.08494,0.00145,0.00012,0.00146,0.29669,0.02557,0.29956,2.20738,1.4456,0.12457,1.45962
0.08551,0.00161,0.00012,0.00145,0.32854,0.02525,0.29614,2.22219,1.62235,0.12468,1.46239
0.08608,0.00164,0.00013,0.00143,0.33626,0.02584,0.29276,2.237,1.68272,0.12928,1.46504
0.08665,0.00146,0.00013,0.00141,0.29948,0.02618,0.28943,2.25181,1.51857,0.13273,1.46757
0.08722,0.00139,0.00013,0.0014,0.28515,0.02561,0.28613,2.26662,1.465,0.13155,1.47
0.08779,0.00154,0.00012,0.00138,0.31556,0.0255,0.28287,2.28143,1.64248,0.13273,1.47231
0.08836,0.00126,0.00013,0.00137,0.25832,0.02575,0.27965,2.29624,1.36205,0.13577,1.47451
0.08893,0.00146,0.00012,0.00135,0.29911,0.02517,0.27647,2.31105,1.59752,0.13445,1.47661
0.0895,0.00116,0.00012,0.00134,0.23698,0.02526,0.27333,2.32587,1.28199,0.13666,1.47859
0.09007,0.00115,0.00012,0.00132,0.23568,0.02517,0.27022,2.34068,1.29123,0.1379,1.48048
0.09064,0.00143,0.00012,0.00131,0.29214,0.02533,0.26715,2.35549,1.62087,0.14057,1.48226
0.09121,0.00132,0.00013,0.00129,0.27085,0.02588,0.26412,2.3703,1.52174,0.14542,1.48394
0.09178,0.00123,0.00012,0.00128,0.25185,0.02535,0.26113,2.38511,1.4327,0.14418,1.48551
0.09235,0.00121,0.00013,0.00126,0.24707,0.0257,0.25818,2.39992,1.42305,0.14805,1.487
0.09292,0.00131,0.00013,0.00125,0.2671,0.02573,0.25526,2.41473,1.55744,0.15,1.48838
0.09349,0.00136,0.00013,0.00123,0.27768,0.02566,0.25237,2.42954,1.63906,0.15145,1.48967
0.09406,0.0013,0.00012,0.00122,0.26676,0.02527,0.24952,2.44435,1.59385,0.151,1.49086
0.09463,0.00134,0.00013,0.00121,0.27452,0.02558,0.24671,2.45916,1.66017,0.15469,1.49197
0.0952,0.00122,0.00012,0.00119,0.25058,0.02547,0.24393,2.47397,1.53368,0.15589,1.49298
0.09577,0.00123,0.00013,0.00118,0.2514,0.02589,0.24119,2.48878,1.55716,0.16037,1.49391
0.09634,0.00085,0.00012,0.00117,0.17387,0.02529,0.23847,2.50359,1.08982,0.1585,1.49475
0.09691,0.00101,0.00013,0.00115,0.20655,0.02574,0.2358,2.5184,1.31001,0.16326,1.4955
0.09748,0.00115,0.00013,0.00114,0.23443,0.02581,0.23315,2.53321,1.5044,0.16564,1.49617
0.09805,0.00106,0.00013,0.00113,0.21698,0.02561,0.23054,2.54802,1.4087,0.16625,1.49675
0.09862,0.00104,0.00013,0.00111,0.21185,0.02625,0.22796,2.56283,1.39144,0.17241,1.49726
0.09919,0.00121,0.00012,0.0011,0.24725,0.02524,0.22541,2.57764,1.64282,0.16772,1.49769
0.09976,0.00099,0.00012,0.00109,0.20349,0.02546,0.2229,2.59245,1.3676,0.1711,1.49803
0.10033,0.00104,0.00013,0.00108,0.21193,0.02617,0.22041,2.60726,1.44064,0.17791,1.49831
0.1009,0.00099,0.00012,0.00107,0.20161,0.02556,0.21796,2.62207,1.38615,0.17575,1.49851
0.10147,0.00111,0.00012,0.00105,0.22723,0.02523,0.21553,2.63688,1.57999,0.17545,1.49864
0.10204,0.00076,0.00012,0.00104,0.15541,0.02507,0.21314,2.65169,1.09273,0.17627,1.49869
0.10261,0.00092,0.00013,0.00103,0.18811,0.02624,0.21078,2.6665,1.33748,0.18658,1.49868
0.10318,0.00125,0.00013,0.00102,0.25626,0.02587,0.20845,2.68131,1.84235,0.18598,1.4986
0.10375,0.00103,0.00012,0.00101,0.21041,0.02444,0.20614,2.69612,1.52949,0.17767,1.49845
0.10432,0.00105,0.00012,0.001,0.2138,0.02403,0.20387,2.71093,1.57123,0.17662,1.49824
0.10489,0.00083,0.00012,0.00099,0.16886,0.02462,0.20162,2.72573,1.25457,0.18291,1.49796
0.10546,0.00113,0.00012,0.00097,0.23166,0.02532,0.1994,2.74054,1.73987,0.19016,1.49762
0.10603,0.00085,0.00012,0.00096,0.17402,0.02475,0.19721,2.75535,1.32116,0.18787,1.49723
0.1066,0.00067,0.00012,0.00095,0.13798,0.02476,0.19505,2.77016,1.05881,0.18998,1.49677
0.10717,0.001,0.00012,0.00094,0.20367,0.02516,0.19291,2.78497,1.57969,0.19511,1.49625
0.10774,0.00087,0.00012,0.00093,0.17703,0.02531,0.19081,2.79978,1.38771,0.19838,1.49568
0.10831,0.00066,0.00012,0.00092,0.1348,0.02529,0.18872,2.81459,1.06787,0.20035,1.49505
0.10888,0.00078,0.00012,0.00091,0.16054,0.02521,0.18667,2.8294,1.28519,0.20179,1.49436
0.10945,0.00069,0.00013,0.0009,0.14041,0.02589,0.18464,2.8442,1.13587,0.20944,1.49362
0.11002,0.001,0.00012,0.00089,0.20439,0.02524,0.18263,2.85901,1.67067,0.2063,1.49283
0.11059,0.00094,0.00012,0.00088,0.19173,0.02507,0.18065,2.87382,1.58344,0.20708,1.49199
0.11116,0.00091,0.00012,0.00087,0.18692,0.02487,0.1787,2.88863,1.55969,0.2075,1.49109
0.11173,0.00099,0.00012,0.00086,0.20301,0.02556,0.17677,2.90344,1.7114,0.21548,1.49015
0.1123,0.00089,0.00013,0.00085,0.18285,0.02565,0.17486,2.91824,1.55717,0.2184,1.48916
0.11287,0.00069,0.00013,0.00085,0.14164,0.02562,0.17298,2.93305,1.21853,0.22036,1.48812
0.11344,0.00087,0.00012,0.00084,0.17821,0.02546,0.17112,2.94786,1.5486,0.22123,1.48703
0.11401,0.00066,0.00012,0.00083,0.13518,0.02549,0.16929,2.96267,1.18656,0.22373,1.48589
0.11458,0.00079,0.00012,0.00082,0.16249,0.02521,0.16747,2.97748,1.44054,0.22352,1.48471
0.11515,0.00082,0.00012,0.00081,0.16865,0.02539,0.16568,2.99228,1.51003,0.22735,1.48348
0.11572,0.00073,0.00013,0.0008,0.1497,0.02566,0.16391,3.00709,1.35364,0.23207,1.48221
0.11629,0.00095,0.00013,0.00079,0.19511,0.02592,0.16217,3.0219,1.78175,0.23671,1.48089
0.11686,0.00094,0.00013,0.00078,0.19177,0.02574,0.16044,3.0367,1.76843,0.23733,1.47953
0.11743,0.00077,0.00013,0.00078,0.15793,0.02651,0.15874,3.05151,1.47059,0.24686,1.47812
0.118,0.00063,0.00012,0.00077,0.12955,0.02545,0.15705,3.06632,1.21806,0.23932,1.47668
0.11857,0.00089,0.00013,0.00076,0.18146,0.02566,0.15539,3.08113,1.72265,0.24357,1.4752
0.11914,0.00074,0.00013,0.00075,0.15082,0.02591,0.15375,3.09593,1.44555,0.24835,1.47367
0.11971,0.00078,0.00013,0.00074,0.15954,0.02601,0.15213,3.11074,1.54386,0.25165,1.47212
0.12028,0.00087,0.00012,0.00074,0.17781,0.0252,0.15053,3.12555,1.73699,0.2462,1.47052
0.12085,0.00101,0.00013,0.00073,0.2075,0.02576,0.14895,3.14035,2.04637,0.25401,1.4689
0.12142,0.00101,0.00013,0.00072,0.20628,0.0258,0.14739,3.15516,2.05355,0.25687,1.46724
0.12199,0.00094,0.00013,0.00071,0.19331,0.02584,0.14584,3.16997,1.9425,0.25961,1.46554
0.12256,0.0008,0.00012,0.00071,0.16347,0.02552,0.14432,3.18477,1.65803,0.2588,1.46382
0.12313,0.00079,0.00013,0.0007,0.1617,0.02574,0.14282,3.19958,1.65539,0.26348,1.46207
0.1237,0.0005,0.00013,0.00069,0.10264,0.02566,0.14133,3.21439,1.06048,0.26515,1.46029
0.12427,0.00075,0.00012,0.00068,0.15399,0.02539,0.13987,3.22919,1.6058,0.26478,1.45848
0.12484,0.00093,0.00013,0.00068,0.19005,0.02605,0.13842,3.244,2.00003,0.27411,1.45664
0.1254,0.00055,0.00012,0.00067,0.11311,0.02542,0.13699,3.2588,1.20116,0.27,1.45478
0.12597,0.00044,0.00013,0.00066,0.09011,0.02604,0.13557,3.27361,0.96571,0.27908,1.45289
0.12654,0.00065,0.00013,0.00066,0.13248,0.02582,0.13418,3.28841,1.43264,0.27924,1.45098
0.12711,0.00049,0.00013,0.00065,0.10096,0.02588,0.1328,3.30322,1.10165,0.28242,1.44904
0.12768,0.00054,0.00012,0.00064,0.11035,0.02524,0.13144,3.31803,1.21486,0.27786,1.44708
0.12825,0.00063,0.00012,0.00064,0.12889,0.02541,0.1301,3.33283,1.43165,0.28221,1.4451
0.12882,0.00059,0.00013,0.00063,0.12077,0.02631,0.12877,3.34764,1.35347,0.29487,1.4431
0.12939,0.00085,0.00013,0.00062,0.17443,0.02574,0.12746,3.36244,1.97213,0.29101,1.44108
0.12996,0.00059,0.00012,0.00062,0.12051,0.02544,0.12617,3.37725,1.37455,0.29019,1.43904
0.13053,0.00047,0.00013,0.00061,0.09705,0.02572,0.12489,3.39205,1.11666,0.29594,1.43697
0.1311,0.00076,0.00013,0.0006,0.15521,0.02576,0.12363,3.40686,1.80147,0.29901,1.43489
0.13167,0.00049,0.00013,0.0006,0.09962,0.02589,0.12238,3.42166,1.1663,0.30317,1.43279
0.13224,0.0006,0.00012,0.00059,0.12321,0.02539,0.12115,3.43647,1.45501,0.29979,1.43066
0.13281,0.00041,0.00013,0.00059,0.08384,0.02558,0.11993,3.45127,0.99859,0.3047,1.42853
0.13338,0.0005,0.00012,0.00058,0.10213,0.0253,0.11873,3.46608,1.22701,0.30391,1.42637
0.13395,0.00065,0.00013,0.00057,0.13205,0.02598,0.11754,3.48088,1.59998,0.31483,1.42419
0.13452,0.00081,0.00013,0.00057,0.16513,0.02579,0.11637,3.49568,2.0178,0.31512,1.422
0.13509,0.00057,0.00013,0.00056,0.11721,0.02598,0.11521,3.51049,1.44442,0.32021,1.41978
0.13566,0.00057,0.00012,0.00056,0.11664,0.02542,0.11406,3.52529,1.4496,0.31595,1.41755
0.13623,0.00056,0.00013,0.00055,0.1155,0.02577,0.11293,3.5401,1.44753,0.32301,1.41531
0.1368,0.0003,0.00013,0.00055,0.06049,0.0261,0.11182,3.5549,0.76442,0.32989,1.41305
0.13737,0.00047,0.00012,0.00054,0.09519,0.02539,0.11071,3.56971,1.21301,0.32351,1.41077
0.13794,0.00046,0.00012,0.00054,0.09512,0.02496,0.10962,3.58451,1.22214,0.32071,1.40848
0.13851,0.00041,0.00012,0.00053,0.0838,0.02402,0.10854,3.59931,1.08568,0.31119,1.40618
0.13908,0.00069,0.00012,0.00053,0.14128,0.02379,0.10748,3.61412,1.84535,0.3108,1.40387
0.13965,0.00057,0.00012,0.00052,0.11616,0.02403,0.10643,3.62892,1.52972,0.3164,1.40154
0.14022,0.00073,0.00012,0.00052,0.14893,0.02432,0.10539,3.64372,1.97736,0.3229,1.39921
0.14079,0.00048,0.00012,0.00051,0.09807,0.02462,0.10436,3.65853,1.31258,0.32959,1.39686
0.14136,0.00067,0.00012,0.00051,0.13694,0.02502,0.10335,3.67333,1.8478,0.33757,1.39451
0.14193,0.00059,0.00012,0.0005,0.12039,0.02513,0.10235,3.68813,1.63763,0.34184,1.39215
0.1425,0.0005,0.00012,0.0005,0.10245,0.02486,0.10136,3.70294,1.40476,0.34092,1.38978
0.14307,0.00047,0.00012,0.00049,0.09547,0.0251,0.10038,3.71774,1.31952,0.34692,1.38741
0.14364,0.00055,0.00012,0.00049,0.11331,0.02502,0.09941,3.73254,1.57858,0.34856,1.38502
0.1442,0.00041,0.00012,0.00048,0.08363,0.02533,0.09846,3.74734,1.17432,0.35569,1.38264
0.14477,0.00024,0.00012,0.00048,0.04931,0.02506,0.09752,3.76215,0.6979,0.35468,1.38025
0.14534,0.00057,0.00012,0.00047,0.11618,0.02516,0.09659,3.77695,1.65729,0.35897,1.37785
0.14591,0.00052,0.00012,0.00047,0.10685,0.02512,0.09567,3.79175,1.53615,0.36121,1.37545
0.14648,0.00048,0.00012,0.00046,0.09879,0.02508,0.09476,3.80655,1.4314,0.36333,1.37305
0.14705,0.00053,0.00012,0.00046,0.10783,0.02485,0.09386,3.82135,1.57454,0.36295,1.37064
0.14762,0.00032,0.00012,0.00045,0.06505,0.02535,0.09298,3.83616,0.95729,0.37304,1.36824
0.14819,0.00029,0.00013,0.00045,0.0589,0.02582,0.0921,3.85096,0.87353,0.38292,1.36583
0.14876,0.00053,0.00013,0.00045,0.10796,0.02558,0.09123,3.86576,1.61342,0.38222,1.36341
0.14933,0.00041,0.00012,0.00044,0.0837,0.02539,0.09038,3.88056,1.2604,0.3824,1.361
0.1499,0.00049,0.00012,0.00044,0.10031,0.02549,0.08953,3.89536,1.52214,0.38674,1.35858
0.15047,0.00059,0.00013,0.00043,0.11971,0.02558,0.0887,3.91016,1.83024,0.39106,1.35616
0.15104,0.00043,0.00012,0.00043,0.08739,0.02539,0.08787,3.92497,1.34623,0.39108,1.35374
0.15161,0.00038,0.00012,0.00043,0.07777,0.02505,0.08706,3.93977,1.20709,0.38879,1.35132
0.15218,0.00059,0.00013,0.00042,0.12127,0.02595,0.08625,3.95457,1.89657,0.4058,1.3489
0.15275,0.00046,0.00012,0.00042,0.09399,0.02529,0.08546,3.96937,1.48094,0.3984,1.34648
0.15332,0.00048,0.00013,0.00041,0.09755,0.02609,0.08467,3.98417,1.54848,0.41413,1.34406
0.15389,0.00047,0.00012,0.00041,0.09535,0.02545,0.0839,3.99897,1.52477,0.407,1.34163
0.15446,0.00027,0.00013,0.00041,0.05562,0.02591,0.08313,4.01377,0.89608,0.41745,1.3392
0.15503,0.0005,0.00013,0.0004,0.10282,0.02579,0.08237,4.02857,1.66874,0.41855,1.33677
0.1556,0.00045,0.00012,0.0004,0.09122,0.02545,0.08162,4.04337,1.49132,0.41616,1.33435
0.15617,0.00042,0.00013,0.0004,0.08574,0.02598,0.08088,4.05817,1.41199,0.42789,1.33192
0.15674,0.00036,0.00013,0.00039,0.07414,0.02613,0.08014,4.07297,1.22996,0.43343,1.32949
0.15731,0.00045,0.00013,0.00039,0.09208,0.0256,0.07942,4.08777,1.5387,0.42769,1.32707
0.15787,0.00034,0.00012,0.00038,0.06945,0.02533,0.0787,4.10257,1.16892,0.4264,1.32464
0.15844,0.0004,0.00013,0.00038,0.08208,0.02567,0.07799,4.11737,1.39154,0.43514,1.32222
0.15901,0.00053,0.00013,0.00038,0.10799,0.02559,0.0773,4.13217,1.8439,0.43686,1.3198
0.15958,0.00062,0.00013,0.00037,0.12591,0.02575,0.0766,4.14697,2.16525,0.44286,1.31739
0.16015,0.00021,0.00012,0.00037,0.04358,0.02537,0.07592,4.16177,0.75483,0.43949,1.31498
0.16072,0.0004,0.00012,0.00037,0.08239,0.02549,0.07525,4.17657,1.43715,0.44466,1.31257
0.16129,0.00036,0.00013,0.00036,0.07331,0.02557,0.07458,4.19137,1.28783,0.44927,1.31017
0.16186,0.00043,0.00013,0.00036,0.08794,0.02586,0.07392,4.20617,1.55576,0.45746,1.30778
0.16243,0.00033,0.00012,0.00036,0.06693,0.02553,0.07327,4.22097,1.1925,0.45489,1.30539
0.163,0.00059,0.00013,0.00035,0.12107,0.02587,0.07262,4.23577,2.17223,0.46417,1.303
0.16357,0.00047,0.00013,0.00035,0.09682,0.02559,0.07199,4.25056,1.7492,0.46242,1.30062
0.16414,0.00038,0.00012,0.00035,0.07798,0.02514,0.07136,4.26536,1.41869,0.45734,1.29825
0.16471,0.00044,0.00013,0.00035,0.0903,0.02612,0.07074,4.28016,1.65424,0.47843,1.29589
0.16528,0.00031,0.00013,0.00034,0.06297,0.02573,0.07012,4.29496,1.16152,0.47463,1.29353
0.16585,0.0005,0.00013,0.00034,0.10135,0.02585,0.06952,4.30976,1.88239,0.48014,1.29118
0.16642,0.00045,0.00012,0.00034,0.09274,0.02532,0.06891,4.32456,1.73447,0.4736,1.28883
0.16699,0.00041,0.00013,0.00033,0.08313,0.02577,0.06832,4.33935,1.56537,0.48521,1.28649
0.16756,0.00016,0.00013,0.00033,0.03275,0.02572,0.06774,4.35415,0.62087,0.48759,1.28417
0.16813,0.00053,0.00013,0.00033,0.10931,0.02568,0.06716,4.36895,2.08641,0.49013,1.28184
0.16869,0.00059,0.00013,0.00033,0.1207,0.026,0.06658,4.38375,2.31947,0.49962,1.27953
0.16926,0.00037,0.00012,0.00032,0.07468,0.02544,0.06602,4.39855,1.44489,0.49224,1.27722
0.16983,0.00037,0.00013,0.00032,0.07491,0.02602,0.06546,4.41334,1.45915,0.50678,1.27492
0.1704,0.00042,0.00012,0.00032,0.0868,0.02516,0.0649,4.42814,1.70205,0.49343,1.27263
0.17097,0.00027,0.00013,0.00031,0.05612,0.02608,0.06436,4.44294,1.10781,0.51474,1.27035
0.17154,0.00024,0.00012,0.00031,0.0496,0.02534,0.06381,4.45773,0.98563,0.50353,1.26807
0.17211,0.00024,0.00012,0.00031,0.04911,0.02512,0.06328,4.47253,0.9824,0.50247,1.2658
0.17268,0.00002,0.00012,0.00031,0.00498,0.02487,0.06275,4.48733,0.10032,0.50082,1.26354
0.17325,0.00037,0.00012,0.0003,0.07586,0.02428,0.06223,4.50212,1.53771,0.49219,1.26128
0.17382,0.00033,0.00011,0.0003,0.06679,0.02337,0.06171,4.51692,1.36265,0.47684,1.25903
0.17439,0.00009,0.00012,0.0003,0.0185,0.0237,0.0612,4.53172,0.37987,0.48681,1.25679
0.17496,0.00009,0.00012,0.0003,0.01937,0.0243,0.06069,4.54651,0.40041,0.50231,1.25455
0.17553,0.00037,0.00012,0.00029,0.07472,0.02451,0.06019,4.56131,1.55452,0.50999,1.25232
0.1761,0.00023,0.00012,0.00029,0.04793,0.02436,0.0597,4.5761,1.00377,0.51015,1.2501
0.17667,0.0003,0.00012,0.00029,0.06092,0.0249,0.05921,4.5909,1.28394,0.52481,1.24789
0.17724,0.0002,0.00012,0.00029,0.04142,0.02424,0.05872,4.6057,0.8787,0.51422,1.24569
0.17781,0.00045,0.00012,0.00028,0.09119,0.02413,0.05825,4.62049,1.94689,0.51517,1.24349
0.17837,0.0004,0.00012,0.00028,0.08094,0.02454,0.05777,4.63529,1.73897,0.52736,1.2413
0.17894,0.00031,0.00012,0.00028,0.06394,0.02498,0.05731,4.65008,1.38267,0.54022,1.23913
0.17951,0.00035,0.00012,0.00028,0.07076,0.02535,0.05684,4.66488,1.53975,0.55172,1.23696
0.18008,0.00026,0.00012,0.00028,0.05259,0.02502,0.05639,4.67967,1.15179,0.54789,1.2348
0.18065,0.00013,0.00012,0.00027,0.02654,0.02528,0.05593,4.69447,0.58495,0.55708,1.23266
0.18122,0.00039,0.00012,0.00027,0.0804,0.02538,0.05549,4.70926,1.78298,0.56294,1.23052
0.18179,0.0004,0.00013,0.00027,0.08211,0.0257,0.05504,4.72406,1.83247,0.57351,1.22839
0.18236,0.00027,0.00012,0.00027,0.0558,0.02541,0.05461,4.73885,1.25305,0.57064,1.22627
0.18293,0.00029,0.00013,0.00026,0.05852,0.02584,0.05417,4.75365,1.32242,0.58386,1.22417
0.1835,0.00012,0.00012,0.00026,0.02365,0.02554,0.05375,4.76844,0.5377,0.58063,1.22207
0.18407,0.00059,0.00012,0.00026,0.12151,0.02513,0.05332,4.78323,2.77998,0.57493,1.21999
0.18464,0.00024,0.00012,0.00026,0.04861,0.02537,0.0529,4.79803,1.11898,0.58396,1.21791
0.18521,0.00036,0.00013,0.00026,0.07326,0.02587,0.05249,4.81282,1.69701,0.59915,1.21585
0.18578,0.00018,0.00013,0.00025,0.03748,0.02592,0.05208,4.82762,0.87348,0.604,1.21379
0.18634,0.00022,0.00012,0.00025,0.04597,0.02537,0.05168,4.84241,1.07787,0.59478,1.21175
0.18691,0.00027,0.00013,0.00025,0.0551,0.02609,0.05128,4.8572,1.29992,0.61542,1.20972
0.18748,0.0002,0.00012,0.00025,0.04032,0.0249,0.05088,4.872,0.95713,0.59094,1.2077
0.18805,0.00036,0.00013,0.00025,0.07339,0.02558,0.05049,4.88679,1.75258,0.61092,1.20569
0.18862,0.00036,0.00012,0.00024,0.07464,0.02541,0.0501,4.90158,1.79334,0.61052,1.20369
0.18919,0.00038,0.00013,0.00024,0.07846,0.02571,0.04972,4.91637,1.89636,0.6215,1.20169
0.18976,0.00014,0.00012,0.00024,0.02846,0.0252,0.04934,4.93117,0.69205,0.61278,1.19971
0.19033,0.00038,0.00013,0.00024,0.0783,0.02589,0.04896,4.94596,1.91534,0.63323,1.19774
0.1909,0.00009,0.00012,0.00024,0.01872,0.02495,0.04859,4.96075,0.46065,0.61408,1.19578
0.19147,0.00026,0.00012,0.00024,0.05267,0.02525,0.04822,4.97554,1.30399,0.62515,1.19383
0.19204,0.00046,0.00013,0.00023,0.09459,0.02562,0.04786,4.99034,2.3555,0.63791,1.19189
0.19261,0.0004,0.00012,0.00023,0.08218,0.02516,0.0475,5.00513,2.05871,0.63029,1.18995
0.19318,0.0001,0.00013,0.00023,0.02083,0.02604,0.04714,5.01992,0.52494,0.65608,1.18803
0.19375,0.00013,0.00012,0.00023,0.02675,0.02519,0.04679,5.03471,0.67817,0.63854,1.18611
0.19431,0.00044,0.00013,0.00023,0.09017,0.02614,0.04644,5.0495,2.29908,0.66647,1.1842
0.19488,0.00028,0.00012,0.00023,0.05829,0.02544,0.0461,5.06429,1.49492,0.65248,1.1823
0.19545,0.00014,0.00012,0.00022,0.02894,0.02486,0.04576,5.07909,0.74646,0.64139,1.18041
0.19602,0.00025,0.00012,0.00022,0.05055,0.02523,0.04542,5.09388,1.31167,0.6547,1.17853
0.19659,0.00028,0.00012,0.00022,0.05755,0.02493,0.04509,5.10867,1.5019,0.65072,1.17666
0.19716,0.00022,0.00012,0.00022,0.04507,0.02509,0.04475,5.12346,1.18304,0.65862,1.1748
0.19773,0.00028,0.00012,0.00022,0.05649,0.02543,0.04443,5.13825,1.49148,0.67142,1.17295
0.1983,0.0002,0.00013,0.00022,0.04138,0.02583,0.0441,5.15304,1.09877,0.6858,1.17111
0.19887,0.00038,0.00012,0.00021,0.0774,0.02547,0.04378,5.16783,2.06702,0.68026,1.16928
0.19944,0.00035,0.00012,0.00021,0.07192,0.02528,0.04347,5.18262,1.93176,0.679,1.16746
0.20001,0.00024,0.00013,0.00021,0.04951,0.02558,0.04315,5.19741,1.3373,0.69108,1.16565
0.20058,0.0003,0.00013,0.00021,0.06158,0.02561,0.04284,5.2122,1.67288,0.69565,1.16385
0.20114,0.00036,0.00013,0.00021,0.07316,0.02557,0.04253,5.22699,1.9987,0.69867,1.16206
0.20171,0.00017,0.00012,0.00021,0.03575,0.02536,0.04223,5.24178,0.98216,0.69687,1.16028
0.20228,0.00016,0.00012,0.0002,0.03296,0.02532,0.04193,5.25657,0.91074,0.69959,1.15851
0.20285,0.00038,0.00013,0.0002,0.0773,0.02563,0.04163,5.27136,2.14788,0.71226,1.15675
0.20342,0.00035,0.00013,0.0002,0.07082,0.02588,0.04133,5.28615,1.97907,0.72325,1.155
0.20399,0.00051,0.00012,0.0002,0.10357,0.02547,0.04104,5.30094,2.91043,0.71574,1.15326
0.20456,0.00028,0.00012,0.0002,0.05729,0.02525,0.04075,5.31572,1.61883,0.71343,1.15153
0.20513,0.00043,0.00012,0.0002,0.08697,0.02557,0.04047,5.33051,2.47118,0.72647,1.14981
0.2057,0.00023,0.00013,0.0002,0.04739,0.02565,0.04018,5.3453,1.35407,0.73282,1.1481
0.20627,0.00022,0.00013,0.0002,0.04546,0.02586,0.0399,5.36009,1.30597,0.74283,1.1464
0.20684,0.00002,0.00012,0.00019,0.00423,0.02506,0.03962,5.37488,0.12224,0.72385,1.14471
0.2074,0.00008,0.00012,0.00019,0.01551,0.02476,0.03935,5.38967,0.45047,0.71929,1.14303
0.20797,0.0002,0.00011,0.00019,0.04092,0.02314,0.03908,5.40445,1.19518,0.67595,1.14135
0.20854,0.00018,0.00011,0.00019,0.03726,0.02283,0.03881,5.41924,1.0944,0.67057,1.13969
0.20911,0.00049,0.00012,0.00019,0.09951,0.02373,0.03854,5.43403,2.93829,0.7008,1.13804
0.20968,0.0002,0.00012,0.00019,0.04178,0.02382,0.03828,5.44882,1.24044,0.70723,1.13639
0.21025,0.00042,0.00012,0.00019,0.08533,0.02444,0.03801,5.4636,2.54707,0.72941,1.13475
0.21082,-0.00008,0.00012,0.00018,-0.01623,0.0242,0.03775,5.47839,-0.48713,0.72628,1.13312
0.21139,0.00012,0.00012,0.00018,0.02398,0.02417,0.0375,5.49318,0.72357,0.72938,1.1315
0.21196,0.0005,0.00012,0.00018,0.10322,0.02417,0.03724,5.50797,3.13151,0.73325,1.12989
0.21253,0.00036,0.00012,0.00018,0.07297,0.02451,0.03699,5.52275,2.22562,0.74761,1.12828
0.21309,0.00045,0.00012,0.00018,0.09227,0.02479,0.03674,5.53754,2.82939,0.76007,1.12668
0.21366,0.00023,0.00012,0.00018,0.04657,0.02523,0.0365,5.55232,1.43552,0.77769,1.12509
0.21423,0.00017,0.00012,0.00018,0.03417,0.02544,0.03625,5.56711,1.05888,0.78855,1.1235
0.2148,0.00025,0.00012,0.00018,0.05157,0.02464,0.03601,5.5819,1.60687,0.76782,1.12193
0.21537,0.00012,0.00012,0.00017,0.02533,0.02507,0.03577,5.59668,0.7935,0.78526,1.12036
0.21594,0.00028,0.00012,0.00017,0.05798,0.02476,0.03553,5.61147,1.8256,0.77958,1.11879
0.21651,0.00038,0.00012,0.00017,0.07792,0.02502,0.03529,5.62625,2.46659,0.79186,1.11724
0.21708,0.00004,0.00012,0.00017,0.00737,0.02492,0.03506,5.64104,0.23449,0.79287,1.1157
0.21765,0,0.00012,0.00017,0.00081,0.02486,0.03483,5.65582,0.02587,0.79516,1.11416
0.21822,0.00053,0.00012,0.00017,0.10861,0.02541,0.0346,5.67061,3.4924,0.81696,1.11263
0.21878,0.00019,0.00012,0.00017,0.03861,0.02539,0.03437,5.68539,1.24799,0.82084,1.11111
0.21935,0.00029,0.00012,0.00017,0.05977,0.02538,0.03415,5.70018,1.94219,0.82468,1.10959
0.21992,0.00015,0.00013,0.00017,0.03119,0.02575,0.03393,5.71496,1.01882,0.84085,1.10809
0.22049,0.00024,0.00013,0.00016,0.04953,0.02591,0.03371,5.72975,1.62606,0.85079,1.10659
0.22106,0.00026,0.00012,0.00016,0.05327,0.02526,0.03349,5.74453,1.75795,0.83357,1.1051
0.22163,0.00028,0.00012,0.00016,0.05687,0.02525,0.03327,5.75932,1.88643,0.83765,1.10362
0.2222,0.0002,0.00012,0.00016,0.0406,0.02513,0.03306,5.7741,1.3536,0.83786,1.10215
0.22277,0.00008,0.00012,0.00016,0.0157,0.02491,0.03285,5.78888,0.52621,0.83471,1.10068
0.22334,0.00013,0.00012,0.00016,0.02702,0.02496,0.03263,5.80367,0.91009,0.84085,1.09922
0.2239,0.00009,0.00012,0.00016,0.01917,0.02545,0.03243,5.81845,0.64913,0.86162,1.09777
0.22447,0.00025,0.00012,0.00016,0.05055,0.02539,0.03222,5.83323,1.71993,0.86397,1.09633
0.22504,0.00014,0.00012,0.00016,0.02886,0.02535,0.03202,5.84802,0.9869,0.86692,1.0949
0.22561,0.00017,0.00012,0.00016,0.03484,0.02509,0.03181,5.8628,1.19737,0.86226,1.09347
0.22618,0.00005,0.00012,0.00015,0.0097,0.02529,0.03161,5.87758,0.33513,0.87354,1.09205
0.22675,0.00024,0.00012,0.00015,0.05003,0.02504,0.03141,5.89237,1.73715,0.86941,1.09064
0.22732,0.00021,0.00012,0.00015,0.04291,0.02544,0.03122,5.90715,1.49738,0.88772,1.08923
0.22789,0.00023,0.00012,0.00015,0.04771,0.02497,0.03102,5.92193,1.6731,0.87574,1.08783
0.22846,0.00001,0.00012,0.00015,0.00207,0.02508,0.03083,5.93671,0.07296,0.88384,1.08644
0.22902,0.00007,0.00012,0.00015,0.01407,0.02468,0.03063,5.95149,0.49835,0.87421,1.08506
0.22959,0.00011,0.00012,0.00015,0.02269,0.02505,0.03044,5.96628,0.80754,0.89162,1.08368
0.23016,0.00027,0.00012,0.00015,0.05591,0.02548,0.03025,5.98106,1.9999,0.91167,1.0823
0.23073,0.00002,0.00012,0.00015,0.0031,0.0253,0.03007,5.99584,0.11133,0.90947,1.08094
0.2313,0.00018,0.00012,0.00015,0.03766,0.0247,0.02988,6.01062,1.3605,0.89249,1.07957
0.23187,0.00013,0.00012,0.00015,0.02753,0.02501,0.0297,6.0254,0.99931,0.90785,1.07822
0.23244,0.00012,0.00012,0.00014,0.02362,0.02502,0.02952,6.04018,0.86167,0.91298,1.07687
0.23301,0.00027,0.00012,0.00014,0.0551,0.02502,0.02934,6.05496,2.01993,0.9174,1.07552
0.23357,-0.00009,0.00013,0.00014,-0.01895,0.02587,0.02916,6.06974,-0.69832,0.95319,1.07418
0.23414,0.00006,0.00012,0.00014,0.01192,0.02554,0.02898,6.08452,0.44127,0.94548,1.07285
0.23471,0.0003,0.00012,0.00014,0.06231,0.02538,0.0288,6.0993,2.31816,0.94423,1.07152
0.23528,0.0001,0.00012,0.00014,0.02035,0.02517,0.02863,6.11408,0.76055,0.94103,1.0702
0.23585,0.00015,0.00012,0.00014,0.03168,0.02489,0.02846,6.12886,1.18999,0.93505,1.06889
0.23642,0.00038,0.00012,0.00014,0.07753,0.0251,0.02828,6.14364,2.92645,0.94727,1.06758
0.23699,0.00026,0.00012,0.00014,0.05317,0.02446,0.02811,6.15842,2.01637,0.92772,1.06628
0.23756,0.00009,0.00012,0.00014,0.0194,0.02466,0.02795,6.1732,0.73943,0.93994,1.06498
0.23812,0.00002,0.00012,0.00014,0.00445,0.02497,0.02778,6.18798,0.17033,0.9561,1.06369
0.23869,0.00021,0.00012,0.00013,0.04202,0.02508,0.02761,6.20276,1.61672,0.96501,1.0624
0.23926,0.00032,0.00012,0.00013,0.06633,0.02511,0.02745,6.21754,2.56417,0.97056,1.06113
0.23983,0.00033,0.00012,0.00013,0.0669,0.02508,0.02729,6.23232,2.59866,0.97427,1.05985
0.2404,0.00027,0.00012,0.00013,0.05523,0.02518,0.02713,6.2471,2.15557,0.9827,1.05859
0.24097,0.0003,0.00012,0.00013,0.06084,0.0246,0.02697,6.26187,2.38573,0.96474,1.05733
0.24154,0.0002,0.00012,0.00013,0.04099,0.02484,0.02681,6.27665,1.61503,0.97869,1.05608
0.24211,0.00031,0.00012,0.00013,0.0642,0.02438,0.02665,6.29143,2.54113,0.96516,1.05483
0.24267,0.00021,0.00011,0.00013,0.04254,0.02249,0.02649,6.30621,1.69179,0.89458,1.05359
0.24324,0.00006,0.00011,0.00013,0.01224,0.02293,0.02634,6.32099,0.48919,0.91606,1.05235
0.24381,0.00007,0.00011,0.00013,0.01519,0.023,0.02619,6.33576,0.60982,0.92327,1.05112
0.24438,0.00011,0.00012,0.00013,0.02156,0.02372,0.02603,6.35054,0.86952,0.95666,1.0499
0.24495,0.00016,0.00012,0.00013,0.03323,0.02376,0.02588,6.36532,1.34636,0.96261,1.04868
0.24552,0.00012,0.00012,0.00013,0.02447,0.02385,0.02573,6.38009,0.99607,0.97078,1.04747
0.24609,0.00011,0.00012,0.00013,0.02309,0.02404,0.02558,6.39487,0.94444,0.9833,1.04626
0.24666,0.00016,0.00012,0.00012,0.03253,0.02411,0.02544,6.40965,1.33656,0.9907,1.04506
0.24722,0.00022,0.00012,0.00012,0.04407,0.02403,0.02529,6.42442,1.81895,0.99173,1.04387
0.24779,0.00011,0.00012,0.00012,0.02333,0.02427,0.02515,6.4392,0.96716,1.00639,1.04268
0.24836,0.00002,0.00012,0.00012,0.00436,0.02492,0.025,6.45398,0.18152,1.03809,1.04149
0.24893,-0.00009,0.00012,0.00012,-0.0193,0.02431,0.02486,6.46875,-0.8074,1.01707,1.04031
0.2495,0.00021,0.00012,0.00012,0.04393,0.02497,0.02472,6.48353,1.84667,1.04976,1.03914
0.25007,0.00016,0.00012,0.00012,0.0335,0.02462,0.02458,6.4983,1.41458,1.0395,1.03797
0.25064,0.00007,0.00012,0.00012,0.01403,0.02521,0.02444,6.51308,0.59526,1.06936,1.03681
0.2512,0.00038,0.00012,0.00012,0.0779,0.02527,0.0243,6.52785,3.31938,1.07677,1.03565
0.25177,0.00021,0.00012,0.00012,0.04216,0.02526,0.02417,6.54263,1.80489,1.08144,1.03449
0.25234,0.00017,0.00012,0.00012,0.03492,0.02537,0.02403,6.5574,1.50142,1.0908,1.03334
0.25291,0.00017,0.00012,0.00012,0.03394,0.02492,0.0239,6.57218,1.46616,1.07639,1.03219
0.25348,0.00028,0.00012,0.00012,0.05706,0.02506,0.02376,6.58695,2.4757,1.08746,1.03105
0.25405,-0.00008,0.00012,0.00012,-0.01585,0.02431,0.02363,6.60172,-0.69072,1.05941,1.02992
0.25462,0.00016,0.00012,0.00011,0.03232,0.02503,0.0235,6.6165,1.41487,1.09592,1.02879
0.25518,0.00014,0.00012,0.00011,0.02799,0.02528,0.02337,6.63127,1.23065,1.11149,1.02766
0.25575,0.00027,0.00012,0.00011,0.05436,0.02535,0.02324,6.64604,2.40105,1.11972,1.02654
0.25632,-0.00013,0.00012,0.00011,-0.02691,0.02486,0.02311,6.66082,-1.19392,1.10303,1.02542
0.25689,0.00034,0.00012,0.00011,0.07006,0.02497,0.02299,6.67559,3.12222,1.11266,1.02431
0.25746,0.00004,0.00012,0.00011,0.00775,0.02468,0.02286,6.69036,0.34698,1.10481,1.02321
0.25803,-0.00012,0.00012,0.00011,-0.02505,0.02443,0.02273,6.70514,-1.1264,1.09841,1.02211
0.25859,0.00012,0.00012,0.00011,0.02353,0.02547,0.02261,6.71991,1.06268,1.15009,1.02101
0.25916,0.00008,0.00012,0.00011,0.01559,0.02457,0.02249,6.73468,0.70701,1.11422,1.01992
0.25973,0.00019,0.00012,0.00011,0.03862,0.02454,0.02236,6.74945,1.75914,1.11803,1.01883
0.2603,0.00019,0.00012,0.00011,0.03867,0.02488,0.02224,6.76422,1.76953,1.13848,1.01775
0.26087,-0.00001,0.00012,0.00011,-0.00169,0.0249,0.02212,6.779,-0.07754,1.1443,1.01668
0.26144,0.00001,0.00012,0.00011,0.00189,0.02512,0.022,6.79377,0.08738,1.15931,1.01561
0.26201,0.00004,0.00012,0.00011,0.00817,0.02504,0.02189,6.80854,0.3785,1.16093,1.01454
0.26257,0.00027,0.00012,0.00011,0.05482,0.02482,0.02177,6.82331,2.5525,1.15567,1.01348
0.26314,0.00013,0.00012,0.00011,0.02699,0.02502,0.02165,6.83808,1.2619,1.16996,1.01242
0.26371,0.00016,0.00012,0.00011,0.03202,0.02456,0.02154,6.85285,1.50359,1.1533,1.01137
0.26428,0.0001,0.00012,0.0001,0.02107,0.02441,0.02142,6.86762,0.9936,1.15137,1.01033
0.26485,-0.00001,0.00012,0.0001,-0.00274,0.02503,0.02131,6.88239,-0.12962,1.18572,1.00928
0.26542,0.00025,0.00012,0.0001,0.05184,0.02483,0.02119,6.89716,2.46593,1.18096,1.00825
0.26598,0.00014,0.00012,0.0001,0.02917,0.02471,0.02108,6.91193,1.39349,1.1805,1.00721
0.26655,0.00027,0.00012,0.0001,0.0559,0.02505,0.02097,6.9267,2.68222,1.20171,1.00618
0.26712,0.00033,0.00012,0.0001,0.06853,0.0251,0.02086,6.94147,3.3022,1.20936,1.00516
0.26769,0.00026,0.00012,0.0001,0.05302,0.02495,0.02075,6.95624,2.56568,1.20736,1.00414
0.26826,0.00025,0.00012,0.0001,0.05016,0.02437,0.02064,6.97101,2.43749,1.18403,1.00312
0.26883,0.00017,0.00012,0.0001,0.03427,0.02443,0.02053,6.98578,1.6726,1.19214,1.00211
0.26939,0.0001,0.00012,0.0001,0.01999,0.02496,0.02043,7.00055,0.97972,1.22302,1.0011
0.26996,0.00023,0.00012,0.0001,0.04684,0.02488,0.02032,7.01532,2.30514,1.22422,1.0001
0.27053,0.00034,0.00012,0.0001,0.06889,0.02494,0.02022,7.03009,3.40481,1.23245,0.9991
0.2711,0.00003,0.00012,0.0001,0.00536,0.02514,0.02011,7.04485,0.26612,1.24771,0.9981
0.27167,0.00021,0.00012,0.0001,0.04208,0.02493,0.02001,7.05962,2.09721,1.24257,0.99711
0.27224,0.00039,0.00012,0.0001,0.07973,0.02453,0.0199,7.07439,3.99045,1.22775,0.99612
0.2728,-0.00005,0.00012,0.0001,-0.01107,0.02484,0.0198,7.08916,-0.55643,1.24861,0.99514
0.27337,0.00017,0.00012,0.0001,0.03402,0.02495,0.0197,7.10392,1.71694,1.25914,0.99415
0.27394,0.00018,0.00012,0.0001,0.0369,0.02536,0.0196,7.11869,1.8697,1.28523,0.99318
0.27451,0.0003,0.00012,0.0001,0.06238,0.02479,0.0195,7.13346,3.17441,1.26156,0.99221
0.27508,0.00004,0.00012,0.00009,0.0091,0.02489,0.0194,7.14822,0.46509,1.27202,0.99124
0.27565,0.00012,0.00012,0.00009,0.0244,0.02435,0.0193,7.16299,1.25176,1.24949,0.99027
0.27621,0.00008,0.00012,0.00009,0.01699,0.02468,0.0192,7.17776,0.87508,1.27158,0.98931
0.27678,0.00013,0.00014,0.00009,0.02705,0.02825,0.01911,7.19252,1.39957,1.4615,0.98836
0.27735,0.00021,0.00015,0.00009,0.04224,0.03144,0.01901,7.20729,2.19438,1.63294,0.98741
0.27792,0.00024,0.00017,0.00009,0.04835,0.03461,0.01891,7.22206,2.52174,1.80524,0.98646
0.27849,-0.00004,0.00019,0.00009,-0.00841,0.03846,0.01882,7.23682,-0.44063,2.01413,0.98552
0.27905,0.00026,0.00021,0.00009,0.05351,0.0434,0.01872,7.25159,2.81394,2.28203,0.98458
0.27962,0.00026,0.00025,0.00009,0.05389,0.05107,0.01863,7.26635,2.84549,2.6967,0.98364
0.28019,0.00005,0.00029,0.00009,0.01063,0.0587,0.01854,7.28112,0.56338,3.11201,0.98271
0.28076,0.00014,0.00035,0.00009,0.02961,0.07246,0.01844,7.29588,1.57605,3.85711,0.98179