File: 2025/starling_2025/figures/experimental_comparison/saxs_scattering/experiment/a1_lcd_wt_martin_2020/mff_out.csv
#File Plotted Below: a1_lcd_wt_martin_2020.dat,,,,,,,,,,
,,,,,,,,,,
    #Fit from 0.01-0.15 with polymer MFF,,,,,,,,,,
#Initial search parameter for I0 = 38.7374,,,,,,,,,,
#Initial search parameter for Rg = 30,,,,,,,,,,
#Initial search parameter for nu = 0.499881,,,,,,,,,,
#BestFit for I0 = 41.73904 +- 0.17376,,,,,,,,,,
#BestFit for I(0)/I0 = 1.00000 +- 0.00416,,,,,,,,,,
#BestFit for Rg = 27.19039 +- 0.15387,,,,,,,,,,
#BestFit for nu = 0.44710 +- 0.00593,,,,,,,,,,
#BestFit reduced chisquared = 0.12226,,,,,,,,,,
#-------------,,,,,,,,,,
#-------------,,,,,,,,,,
,,,,,,,,,,
    #q,I(q),Error,fit,I(q)/I0,Error/I0,fit/I0,qRg,((qRg)^2)I(q)/I0,((qRg)^2)*Error/I0,((qRg)^2)*fit/I0
0.00535,9.0966,60.653,41.47312,0.21794,1.45315,0.99363,0.14553,0.00462,0.03077,0.02104
0.00625,27.954,32.02,41.36077,0.66973,0.76715,0.99094,0.16992,0.01934,0.02215,0.02861
0.00715,42.317,22.241,41.23029,1.01385,0.53286,0.98781,0.19431,0.03828,0.02012,0.0373
0.00804,32.417,17.168,41.08223,0.77666,0.41132,0.98426,0.2187,0.03715,0.01967,0.04708
0.00894,41.577,13.408,40.91709,0.99612,0.32123,0.98031,0.24309,0.05886,0.01898,0.05793
0.00984,42.188,10.947,40.73539,1.01076,0.26227,0.97595,0.26748,0.07231,0.01876,0.06982
0.01073,38.517,9.2948,40.53769,0.92281,0.22269,0.97122,0.29186,0.07861,0.01897,0.08273
0.01163,41.561,7.9221,40.32443,0.99573,0.1898,0.96611,0.31625,0.09959,0.01898,0.09663
0.01253,40.677,6.8451,40.09616,0.97456,0.164,0.96064,0.34064,0.11308,0.01903,0.11147
0.01342,40.845,6.0084,39.85341,0.97858,0.14395,0.95482,0.36503,0.13039,0.01918,0.12723
0.01432,36.222,5.3324,39.59669,0.86782,0.12776,0.94867,0.38942,0.1316,0.01937,0.14386
0.01522,37.609,4.8419,39.32652,0.90105,0.116,0.9422,0.41381,0.1543,0.01986,0.16134
0.01612,36.173,4.3242,39.04342,0.86665,0.1036,0.93542,0.4382,0.16641,0.01989,0.17962
0.01701,40.038,3.9389,38.7479,0.95925,0.09437,0.92834,0.46259,0.20527,0.02019,0.19865
0.01791,37.68,3.6819,38.44049,0.90275,0.08821,0.92097,0.48698,0.21409,0.02092,0.21841
0.01881,37.277,3.4824,38.1217,0.8931,0.08343,0.91333,0.51137,0.23354,0.02182,0.23884
0.0197,37.819,3.2357,37.79206,0.90608,0.07752,0.90544,0.53576,0.26008,0.02225,0.25989
0.0206,37.779,3.0467,37.45207,0.90512,0.07299,0.89729,0.56015,0.284,0.0229,0.28154
0.0215,38.004,2.8877,37.10227,0.91051,0.06918,0.88891,0.58454,0.31111,0.02364,0.30373
0.0224,35.342,2.7719,36.74316,0.84674,0.06641,0.88031,0.60893,0.31397,0.02462,0.32641
0.02329,37.795,2.6237,36.37527,0.90551,0.06286,0.87149,0.63332,0.36319,0.02521,0.34955
0.02419,36.588,2.4989,35.99911,0.87659,0.05987,0.86248,0.65771,0.3792,0.0259,0.37309
0.02509,36.182,2.4464,35.6152,0.86686,0.05861,0.85328,0.6821,0.40331,0.02727,0.397
0.02598,34.279,2.5376,35.22407,0.82127,0.0608,0.84391,0.70649,0.40992,0.03035,0.42122
0.02688,35.563,2.569,34.82622,0.85203,0.06155,0.83438,0.73088,0.45514,0.03288,0.44571
0.02778,34.542,2.5746,34.42218,0.82757,0.06168,0.8247,0.75527,0.47207,0.03519,0.47043
0.02867,34.692,2.5709,34.01246,0.83116,0.06159,0.81488,0.77966,0.50524,0.03744,0.49534
0.02957,33.73,2.6258,33.59759,0.80812,0.06291,0.80494,0.80405,0.52244,0.04067,0.52039
0.03047,32.54,2.5894,33.17808,0.77961,0.06204,0.79489,0.82844,0.53505,0.04258,0.54554
0.03136,33.09,2.4014,32.75445,0.79278,0.05753,0.78474,0.85283,0.5766,0.04184,0.57075
0.03226,31.835,2.3092,32.32723,0.76272,0.05532,0.77451,0.87722,0.58692,0.04257,0.59599
0.03316,32.083,2.3054,31.89691,0.76866,0.05523,0.7642,0.90161,0.62484,0.0449,0.62121
0.03406,31.408,2.2563,31.46404,0.75248,0.05406,0.75383,0.926,0.64523,0.04635,0.64638
0.03495,29.415,2.3041,31.02912,0.70474,0.0552,0.74341,0.95039,0.63654,0.04986,0.67147
0.03585,31.145,2.3146,30.59267,0.74618,0.05545,0.73295,0.97478,0.70901,0.05269,0.69644
0.03675,31.213,2.3354,30.15521,0.74781,0.05595,0.72247,0.99917,0.74656,0.05586,0.72126
0.03764,29.392,2.3283,29.71723,0.70418,0.05578,0.71198,1.02355,0.73775,0.05844,0.74591
0.03854,29.661,2.325,29.27905,0.71063,0.0557,0.70148,1.04794,0.78041,0.06117,0.77036
0.03944,28.13,2.2896,28.84097,0.67395,0.05486,0.69098,1.07233,0.77498,0.06308,0.79456
0.04034,28.244,2.3155,28.40325,0.67668,0.05548,0.6805,1.09672,0.81391,0.06673,0.8185
0.04123,30.111,2.338,27.96618,0.72141,0.05601,0.67002,1.12111,0.90674,0.0704,0.84215
0.04213,27.958,2.2908,27.53004,0.66983,0.05488,0.65958,1.1455,0.87893,0.07202,0.86548
0.04303,27.449,2.2758,27.09511,0.65763,0.05452,0.64915,1.16989,0.90007,0.07463,0.88847
0.04392,27.175,2.2998,26.66167,0.65107,0.0551,0.63877,1.19428,0.92863,0.07859,0.91109
0.04482,26.589,2.2909,26.23,0.63703,0.05489,0.62843,1.21867,0.94609,0.08152,0.93332
0.04572,26.768,2.2221,25.80038,0.64132,0.05324,0.61814,1.24306,0.99097,0.08226,0.95515
0.04661,25.483,2.2468,25.37309,0.61053,0.05383,0.6079,1.26745,0.98078,0.08647,0.97655
0.04751,25.399,2.2311,24.94841,0.60852,0.05345,0.59772,1.29184,1.01553,0.08921,0.99752
0.04841,23.73,2.216,24.52663,0.56853,0.05309,0.58762,1.31623,0.98496,0.09198,1.01803
0.04931,24.49,2.1913,24.10801,0.58674,0.0525,0.57759,1.34062,1.05453,0.09436,1.03808
0.0502,24.581,2.2126,23.69285,0.58892,0.05301,0.56764,1.36501,1.09731,0.09877,1.05766
0.0511,24.34,2.1876,23.28143,0.58315,0.05241,0.55779,1.3894,1.12573,0.10118,1.07677
0.052,21.779,2.1902,22.87401,0.52179,0.05247,0.54802,1.41379,1.04296,0.10488,1.09539
0.05289,22.478,2.1546,22.47089,0.53854,0.05162,0.53837,1.43818,1.11389,0.10677,1.11354
0.05379,23.055,2.137,22.07235,0.55236,0.0512,0.52882,1.46257,1.18156,0.10952,1.1312
0.05469,21.916,2.1479,21.67866,0.52507,0.05146,0.51939,1.48696,1.16096,0.11378,1.14839
0.05558,20.806,2.1464,21.2901,0.49848,0.05142,0.51008,1.51135,1.13861,0.11746,1.16511
0.05648,20.683,2.1142,20.90683,0.49553,0.05065,0.50089,1.53574,1.16871,0.11946,1.18136
0.05738,19.79,2.0772,20.52885,0.47414,0.04977,0.49184,1.56013,1.15405,0.12113,1.19714
0.05828,20.714,2.0898,20.15616,0.49627,0.05007,0.48291,1.58452,1.246,0.12571,1.21244
0.05917,19.839,2.0827,19.78877,0.47531,0.0499,0.47411,1.60891,1.23038,0.12917,1.22727
0.06007,20.36,2.0454,19.42665,0.48779,0.049,0.46543,1.6333,1.30127,0.13073,1.24162
0.06097,19.046,2.0593,19.06983,0.45631,0.04934,0.45688,1.65769,1.25391,0.13558,1.25548
0.06186,19.34,2.053,18.71828,0.46336,0.04919,0.44846,1.68208,1.31101,0.13917,1.26887
0.06276,18.799,2.0566,18.37201,0.45039,0.04927,0.44016,1.70647,1.31156,0.14348,1.28177
0.06366,18.204,2.0279,18.03065,0.43614,0.04859,0.43199,1.73089,1.30666,0.14556,1.29421
0.06456,19.301,2.0134,17.69494,0.46242,0.04824,0.42394,1.75528,1.42471,0.14862,1.30616
0.06545,17.089,2.0105,17.36487,0.40942,0.04817,0.41603,1.77964,1.29669,0.15255,1.31763
0.06635,16.903,2.0054,17.03934,0.40497,0.04805,0.40824,1.80406,1.31802,0.15637,1.32865
0.06724,16.243,1.9916,16.71979,0.38916,0.04772,0.40058,1.82842,1.30099,0.15952,1.33918
0.06814,17.498,1.97,16.40516,0.41922,0.0472,0.39304,1.85281,1.43915,0.16203,1.34927
0.06904,17.044,1.9763,16.09544,0.40835,0.04735,0.38562,1.87722,1.439,0.16686,1.35892
0.06994,16.148,1.9642,15.79167,0.38688,0.04706,0.37834,1.90159,1.39897,0.17017,1.3681
0.07083,15.065,1.9431,15.49281,0.36093,0.04655,0.37118,1.92598,1.33884,0.17269,1.37686
0.07173,15.383,1.9391,15.19889,0.36855,0.04646,0.36414,1.95039,1.40198,0.17673,1.3852
0.07263,14.624,1.9343,14.91087,0.35037,0.04634,0.35724,1.97476,1.36631,0.18072,1.39312
0.07352,15.291,1.9463,14.62747,0.36635,0.04663,0.35045,1.99917,1.46418,0.18637,1.40064
0.07442,12.836,1.9211,14.34962,0.30753,0.04603,0.34379,2.02356,1.25928,0.18847,1.40777
0.07532,15.144,1.9108,14.07726,0.36283,0.04578,0.33727,2.04793,1.52169,0.192,1.4145
0.07622,14.688,1.8993,13.80941,0.3519,0.0455,0.33085,2.07234,1.51127,0.19542,1.42087
0.07711,12.978,1.899,13.54691,0.31093,0.0455,0.32456,2.09673,1.36695,0.20002,1.42687
0.07801,12.368,1.9021,13.28967,0.29632,0.04557,0.3184,2.12109,1.33314,0.20503,1.43249
0.07891,13.677,1.8714,13.03676,0.32768,0.04484,0.31234,2.14551,1.50838,0.20639,1.43777
0.0798,12.149,1.8704,12.78925,0.29107,0.04481,0.30641,2.16987,1.37046,0.21099,1.44269
0.0807,11.623,1.8724,12.54622,0.27847,0.04486,0.30059,2.19426,1.34077,0.21599,1.44727
0.0816,12.422,1.8665,12.30763,0.29761,0.04472,0.29487,2.21868,1.465,0.22013,1.45152
0.08249,10.93,1.8412,12.07393,0.26187,0.04411,0.28927,2.24307,1.31754,0.22194,1.45543
0.08339,12.011,1.8361,11.84479,0.28776,0.04399,0.28378,2.26746,1.4795,0.22617,1.45903
0.08429,11.321,1.8405,11.62013,0.27123,0.0441,0.2784,2.29185,1.42467,0.23161,1.46232
0.08519,11.168,1.8385,11.39989,0.26757,0.04405,0.27312,2.31624,1.43549,0.23631,1.4653
0.08608,10.967,1.8255,11.184,0.26275,0.04374,0.26795,2.34063,1.4395,0.23961,1.46798
0.08698,10.728,1.807,10.97238,0.25703,0.04329,0.26288,2.36502,1.43763,0.24215,1.47038
0.08788,10.552,1.8171,10.76498,0.25281,0.04353,0.25791,2.38941,1.44336,0.24855,1.47249
0.08877,10.407,1.8159,10.5617,0.24933,0.04351,0.25304,2.4138,1.45273,0.25348,1.47433
0.08967,9.4119,1.892,10.3625,0.22549,0.04533,0.24827,2.43819,1.34051,0.26947,1.4759
0.09057,9.8698,1.96,10.16729,0.23646,0.04696,0.24359,2.46258,1.43399,0.28477,1.47721
0.09147,8.949,2.0029,9.97601,0.2144,0.04799,0.23901,2.48697,1.32609,0.2968,1.47827
0.09236,10.619,2.0829,9.78859,0.25441,0.0499,0.23452,2.51136,1.60457,0.31473,1.47909
0.09326,9.7956,2.0763,9.60496,0.23469,0.04974,0.23012,2.53575,1.50904,0.31986,1.47967
0.09416,9.9558,2.0272,9.42505,0.23852,0.04857,0.22581,2.56014,1.56337,0.31833,1.48002
0.09505,8.4225,1.9237,9.24881,0.20179,0.04609,0.22159,2.58453,1.34791,0.30786,1.48015
0.09595,8.4043,1.8807,9.07617,0.20135,0.04506,0.21745,2.60892,1.3705,0.30669,1.48007
0.09685,9.6532,1.8102,8.90706,0.23128,0.04337,0.2134,2.63331,1.60373,0.30074,1.47977
0.09774,9.7105,1.7964,8.74143,0.23265,0.04304,0.20943,2.6577,1.64327,0.304,1.47928
0.09864,8.0448,1.7995,8.5792,0.19274,0.04311,0.20554,2.68209,1.3865,0.31014,1.4786
0.09954,8.7122,1.7992,8.42033,0.20873,0.04311,0.20174,2.70648,1.52895,0.31575,1.47773
0.10043,7.2158,1.765,8.26559,0.17288,0.04229,0.19803,2.73073,1.28914,0.31533,1.47669
0.10133,8.0542,1.7638,8.11268,0.19297,0.04226,0.19437,2.7552,1.46483,0.32078,1.47546
0.10223,7.0173,1.7633,7.96296,0.16812,0.04225,0.19078,2.77967,1.29902,0.32642,1.47407
0.10313,7.6522,1.7625,7.81634,0.18333,0.04223,0.18727,2.80414,1.4416,0.33204,1.47252
0.10402,6.8689,1.7433,7.67435,0.16457,0.04177,0.18387,2.82834,1.31646,0.33411,1.47083
0.10492,7.4119,1.7365,7.53373,0.17758,0.0416,0.1805,2.85282,1.44522,0.33859,1.46898
0.10582,7.2107,1.7343,7.39603,0.17276,0.04155,0.1772,2.87729,1.43021,0.34399,1.46697
0.10671,8.1964,1.7286,7.26267,0.19637,0.04141,0.174,2.90149,1.65319,0.34865,1.46486
0.10761,6.3439,1.7185,7.13058,0.15199,0.04117,0.17084,2.92596,1.30122,0.35249,1.46258
0.10851,7.3158,1.7053,7.00122,0.17527,0.04086,0.16774,2.95043,1.52577,0.35565,1.46016
0.10941,6.832,1.7027,6.87453,0.16368,0.04079,0.1647,2.9749,1.44861,0.36103,1.45762
0.1103,7.7551,1.7059,6.75179,0.1858,0.04087,0.16176,2.9991,1.67119,0.36761,1.45498
0.1112,6.8357,1.6968,6.6302,0.16377,0.04065,0.15885,3.02357,1.4972,0.37165,1.45219
0.1121,6.6094,1.6789,6.5111,0.15835,0.04022,0.156,3.04804,1.47117,0.3737,1.44929
0.11299,6.3477,1.678,6.39573,0.15208,0.0402,0.15323,3.07224,1.43544,0.37946,1.4463
0.11389,5.4586,1.6759,6.28145,0.13078,0.04015,0.15049,3.09671,1.25412,0.38504,1.44318
0.11479,6.2518,1.6769,6.16953,0.14978,0.04018,0.14781,3.12118,1.45916,0.39138,1.43995
0.11568,6.4645,1.6573,6.06112,0.15488,0.03971,0.14521,3.14538,1.53229,0.39283,1.43667
0.11658,5.4736,1.6522,5.95376,0.13114,0.03958,0.14264,3.16986,1.31768,0.39774,1.43327
0.11748,5.4732,1.6485,5.84862,0.13113,0.0395,0.14012,3.19433,1.338,0.403,1.42978
0.11837,4.9935,1.6545,5.74679,0.11964,0.03964,0.13768,3.21853,1.2393,0.41062,1.42625
0.11927,4.6468,1.6321,5.64595,0.11133,0.0391,0.13527,3.243,1.17086,0.41124,1.42262
0.12017,5.4167,1.6332,5.5472,0.12978,0.03913,0.1329,3.26747,1.38553,0.41775,1.41891
0.12107,5.5291,1.6373,5.45049,0.13247,0.03923,0.13059,3.29194,1.43554,0.4251,1.41513
0.12196,6.0178,1.6258,5.35684,0.14418,0.03895,0.12834,3.31614,1.58548,0.42834,1.41134
0.12286,5.7561,1.7168,5.26408,0.13791,0.04113,0.12612,3.34061,1.539,0.45902,1.40745
0.12376,5.0458,1.761,5.17324,0.12089,0.04219,0.12394,3.36508,1.36892,0.47776,1.4035
0.12465,4.4404,1.7207,5.08526,0.10638,0.04123,0.12183,3.38928,1.22207,0.47356,1.39954
0.12555,5.566,1.6733,4.9981,0.13335,0.04009,0.11975,3.41375,1.55405,0.46719,1.39549
0.12645,6.4361,1.6476,4.91273,0.1542,0.03947,0.1177,3.43822,1.82284,0.46664,1.39139
0.12735,4.7824,1.6435,4.82911,0.11458,0.03938,0.1157,3.4627,1.37383,0.47212,1.38724
0.12824,4.6347,1.6227,4.74808,0.11104,0.03888,0.11376,3.4869,1.35007,0.47269,1.3831
0.12914,4.6867,1.6124,4.66778,0.11229,0.03863,0.11183,3.51137,1.38445,0.4763,1.37886
0.13004,5.583,1.6027,4.58911,0.13376,0.0384,0.10995,3.53584,1.67228,0.48006,1.37458
0.13093,4.1647,1.5952,4.51286,0.09978,0.03822,0.10812,3.56004,1.26459,0.48438,1.37031
0.13183,4.8896,1.597,4.43732,0.11715,0.03826,0.10631,3.58451,1.50519,0.49161,1.36596
0.13273,4.0694,1.5917,4.3633,0.0975,0.03813,0.10454,3.60898,1.26986,0.49669,1.36158
0.13362,4.9453,1.578,4.29159,0.11848,0.03781,0.10282,3.63318,1.56395,0.49904,1.35722
0.13452,3.6022,1.5667,4.22053,0.0863,0.03754,0.10112,3.65765,1.1546,0.50217,1.35279
0.13542,4.1611,1.5649,4.15093,0.09969,0.03749,0.09945,3.68212,1.35164,0.50832,1.34834
0.13631,4.4149,1.5672,4.08349,0.10577,0.03755,0.09783,3.70632,1.453,0.51578,1.34392
0.13721,4.2155,1.558,4.01667,0.101,0.03733,0.09623,3.73079,1.40575,0.51955,1.33945
0.13811,3.7544,1.5489,3.95122,0.08995,0.03711,0.09466,3.75526,1.26847,0.52331,1.33496
0.13901,3.7667,1.5402,3.8871,0.09024,0.0369,0.09313,3.77974,1.28926,0.52718,1.33047
0.1399,3.4706,1.5521,3.82497,0.08315,0.03719,0.09164,3.80394,1.20317,0.53808,1.32603
0.1408,3.8751,1.5428,3.76341,0.09284,0.03696,0.09017,3.82841,1.36074,0.54176,1.32153
0.1417,4.2374,1.5242,3.70311,0.10152,0.03652,0.08872,3.85288,1.50705,0.54209,1.31703
0.14259,3.2733,1.5257,3.64467,0.07842,0.03655,0.08732,3.87708,1.17883,0.54946,1.31258
0.14349,3.443,1.5354,3.58675,0.08249,0.03679,0.08593,3.90155,1.25565,0.55995,1.30808
0.14439,3.1306,1.5335,3.53001,0.075,0.03674,0.08457,3.92602,1.15609,0.5663,1.30358
0.14528,4.1307,1.511,3.475,0.09896,0.0362,0.08326,3.95022,1.54427,0.56489,1.29914
0.14618,4.6304,1.5093,3.42048,0.11094,0.03616,0.08195,3.97469,1.7526,0.57127,1.29465
0.14708,4.2481,1.5125,3.36703,0.10178,0.03624,0.08067,3.99916,1.62776,0.57955,1.29016
0.14798,3.7644,1.5076,3.31464,0.09019,0.03612,0.07941,4.02363,1.46013,0.58476,1.28567
0.14887,3.0151,1.5011,3.26384,0.07224,0.03596,0.0782,4.04783,1.1836,0.58927,1.28124
0.14977,3.3529,1.4931,3.21347,0.08033,0.03577,0.07699,4.0723,1.33217,0.59324,1.27677
0.15067,3.2407,1.4952,3.1641,0.07764,0.03582,0.07581,4.09678,1.30311,0.60123,1.27231
0.15156,2.5024,1.4977,3.11623,0.05995,0.03588,0.07466,4.12098,1.01816,0.60937,1.26791
0.15246,2.9621,1.4892,3.06878,0.07097,0.03568,0.07352,4.14545,1.21955,0.61313,1.26347
0.15336,3.3191,1.5591,3.02227,0.07952,0.03735,0.07241,4.16992,1.38272,0.64951,1.25906
0.15426,2.9823,1.6166,2.97667,0.07145,0.03873,0.07132,4.19439,1.25703,0.68139,1.25466
0.15515,2.3807,1.6539,2.93247,0.05704,0.03962,0.07026,4.21859,1.01507,0.70518,1.25033
0.15605,3.3107,1.6368,2.88865,0.07932,0.03922,0.06921,4.24306,1.42802,0.70601,1.24598
0.15695,1.9556,1.656,2.84569,0.04685,0.03968,0.06818,4.26753,0.85328,0.72256,1.24165
0.15784,1.562,1.5946,2.80404,0.03742,0.0382,0.06718,4.29173,0.68929,0.70368,1.23739
0.15874,2.8447,1.5435,2.76275,0.06815,0.03698,0.06619,4.3162,1.26969,0.68892,1.23311
0.15964,2.708,1.5096,2.72227,0.06488,0.03617,0.06522,4.34067,1.22242,0.68145,1.22886
0.16053,2.2663,1.4962,2.68302,0.0543,0.03585,0.06428,4.36487,1.03447,0.68295,1.22468
0.16143,2.2966,1.4993,2.64409,0.05502,0.03592,0.06335,4.38934,1.06009,0.69206,1.22049
0.16233,2.4392,1.4981,2.60592,0.05844,0.03589,0.06243,4.41382,1.1385,0.69924,1.21632
0.16323,2.1137,1.4851,2.56848,0.05064,0.03558,0.06154,4.43829,0.99754,0.70088,1.21217
0.16412,2.056,1.4685,2.53217,0.04926,0.03518,0.06067,4.46249,0.98092,0.70062,1.2081
0.16502,2.9002,1.467,2.49614,0.06948,0.03515,0.0598,4.48696,1.39891,0.70761,1.20401
0.16592,2.9655,1.4735,2.46079,0.07105,0.0353,0.05896,4.51143,1.44605,0.71852,1.19994
0.16681,1.8257,1.4576,2.4265,0.04374,0.03492,0.05813,4.53563,0.89983,0.71841,1.19595
0.16771,1.8168,1.4514,2.39246,0.04353,0.03477,0.05732,4.5601,0.90513,0.72309,1.19193
0.16861,2.5463,1.4536,2.35907,0.06101,0.03483,0.05652,4.58457,1.28223,0.73198,1.18794
0.1695,2.2751,1.4453,2.32667,0.05451,0.03463,0.05574,4.60877,1.15779,0.73551,1.18403
0.1704,1.8112,1.4503,2.29452,0.04339,0.03475,0.05497,4.63324,0.93152,0.74591,1.1801
0.1713,2.4859,1.4312,2.26298,0.05956,0.03429,0.05422,4.65771,1.29207,0.74388,1.17621
0.17219,2.4525,1.4307,2.23237,0.05876,0.03428,0.05348,4.68191,1.28799,0.75137,1.17239
0.17309,2.6489,1.4357,2.202,0.06346,0.0344,0.05276,4.70638,1.40572,0.7619,1.16856
0.17399,1.6982,1.4241,2.1722,0.04069,0.03412,0.05204,4.73086,0.9106,0.76362,1.16476
0.17489,1.3855,1.4236,2.14296,0.03319,0.03411,0.05134,4.75533,0.75063,0.77127,1.161
0.17578,2.6855,1.4119,2.11458,0.06434,0.03383,0.05066,4.77953,1.46978,0.77274,1.15731
0.17668,2.9432,1.4181,2.08642,0.07051,0.03398,0.04999,4.804,1.62736,0.7841,1.15362
0.17758,2.324,1.4106,2.05878,0.05568,0.0338,0.04932,4.82847,1.29811,0.78792,1.14997
0.17847,3.5559,1.401,2.03195,0.08519,0.03357,0.04868,4.85267,2.00617,0.79042,1.14639
0.17937,2.3452,1.3959,2.00531,0.05619,0.03344,0.04804,4.87714,1.3365,0.7955,1.1428
0.18027,1.9615,1.4,1.97917,0.04699,0.03354,0.04742,4.90161,1.12908,0.80587,1.13925
0.18116,2.0922,1.4058,1.95379,0.05013,0.03368,0.04681,4.92581,1.21623,0.81722,1.13577
0.18206,2.1704,1.3909,1.92858,0.052,0.03332,0.04621,4.95028,1.27426,0.81661,1.13228
0.18296,1.5469,1.3871,1.90382,0.03706,0.03323,0.04561,4.97475,0.9172,0.82245,1.12883
0.18386,1.7748,1.3838,1.87951,0.04252,0.03315,0.04503,4.99922,1.0627,0.82858,1.1254
0.18475,2.0447,1.3891,1.85589,0.04899,0.03328,0.04446,5.02342,1.23619,0.83983,1.12204
0.18565,2.0371,1.3842,1.83243,0.04881,0.03316,0.0439,5.0479,1.24363,0.84504,1.11868
0.18655,2.2612,1.3675,1.80938,0.05417,0.03276,0.04335,5.07237,1.39386,0.84296,1.11534
0.18744,1.3632,1.3711,1.78698,0.03266,0.03285,0.04281,5.09657,0.84834,0.85326,1.11207
0.18834,2.0496,1.3726,1.76473,0.04911,0.03289,0.04228,5.12104,1.28778,0.86242,1.1088
0.18924,0.96309,1.3713,1.74287,0.02307,0.03285,0.04176,5.14551,0.61092,0.86985,1.10555
0.19013,0.99954,1.3622,1.72164,0.02395,0.03264,0.04125,5.16971,0.64001,0.87223,1.10238
0.19103,2.2166,1.3557,1.70054,0.05311,0.03248,0.04074,5.19418,1.43278,0.8763,1.0992
0.19193,1.676,1.3643,1.6798,0.04015,0.03269,0.04025,5.21865,1.09357,0.89019,1.09606
0.19283,2.8186,1.3495,1.65944,0.06753,0.03233,0.03976,5.24312,1.8564,0.88881,1.09294
0.19372,1.1487,1.3455,1.63964,0.02752,0.03224,0.03928,5.26732,0.76356,0.89438,1.0899
0.19462,1.0139,1.3444,1.61997,0.02429,0.03221,0.03881,5.29179,0.68023,0.90197,1.08685
0.19552,2.2453,1.3473,1.60063,0.05379,0.03228,0.03835,5.31626,1.52036,0.91229,1.08383
0.19641,2.119,1.3355,1.58184,0.05077,0.032,0.0379,5.34046,1.44793,0.91256,1.08088
0.19731,1.4532,1.3275,1.56316,0.03482,0.0318,0.03745,5.36494,1.0021,0.91542,1.07793
0.19821,1.1231,1.3309,1.5448,0.02691,0.03189,0.03701,5.38941,0.78155,0.92616,1.07501
0.19911,1.5627,1.3361,1.52674,0.03744,0.03201,0.03658,5.41388,1.09736,0.93824,1.07211
0.2,1.4728,1.3288,1.50918,0.03529,0.03184,0.03616,5.43808,1.0435,0.94147,1.06928
0.2009,1.8881,1.3219,1.49172,0.04524,0.03167,0.03574,5.46255,1.34981,0.94503,1.06644
0.2018,2.1259,1.324,1.47455,0.05093,0.03172,0.03533,5.48702,1.53346,0.95503,1.06363
0.20269,1.7933,1.3268,1.45784,0.04296,0.03179,0.03493,5.51122,1.30499,0.96551,1.06087
0.20359,2.0143,1.3203,1.44121,0.04826,0.03163,0.03453,5.53569,1.47885,0.96933,1.0581
0.20449,1.7458,1.3135,1.42485,0.04183,0.03147,0.03414,5.56016,1.29308,0.97289,1.05536
0.20538,1.3518,1.3087,1.40893,0.03239,0.03135,0.03376,5.58436,1.00999,0.97779,1.05268
0.20628,1.1112,1.3057,1.39309,0.02662,0.03128,0.03338,5.60883,0.83752,0.98412,1.04998
0.20718,0.6798,1.3126,1.37751,0.01629,0.03145,0.033,5.6333,0.51685,0.99797,1.04732
0.20808,0.84786,1.2999,1.36218,0.02031,0.03114,0.03264,5.65778,0.65024,0.99692,1.04468
0.20897,1.5449,1.294,1.34725,0.03701,0.031,0.03228,5.68198,1.19497,1.0009,1.04209
0.20987,0.64235,1.3063,1.3324,0.01539,0.0313,0.03192,5.70645,0.50114,1.01914,1.0395
0.21077,1.7378,1.298,1.31779,0.04163,0.0311,0.03157,5.73092,1.36743,1.02136,1.03693
0.21166,1.799,1.2876,1.30356,0.0431,0.03085,0.03123,5.75512,1.42757,1.02176,1.03442
0.21256,0.92903,1.281,1.2894,0.02226,0.03069,0.03089,5.77959,0.7435,1.02518,1.03191
0.21346,1.4784,1.2961,1.27547,0.03542,0.03105,0.03056,5.80406,1.1932,1.04607,1.02942
0.21435,2.1189,1.2875,1.2619,0.05077,0.03085,0.03023,5.82826,1.72443,1.04781,1.02698
0.21525,1.6233,1.2854,1.24839,0.03889,0.0308,0.02991,5.85273,1.33221,1.0549,1.02453
0.21615,1.044,1.326,1.23509,0.02501,0.03177,0.02959,5.8772,0.86397,1.09734,1.02211
0.21704,1.3321,1.3661,1.22214,0.03191,0.03273,0.02928,5.9014,1.11149,1.13986,1.01974
0.21794,1.4034,1.3833,1.20924,0.03362,0.03314,0.02897,5.92587,1.18071,1.1638,1.01736
0.21884,1.6313,1.3948,1.19654,0.03908,0.03342,0.02867,5.95034,1.38381,1.18319,1.01501
0.21974,0.87174,1.4072,1.18403,0.02089,0.03371,0.02837,5.97482,0.74558,1.20355,1.01267
0.22063,1.0813,1.4093,1.17184,0.02591,0.03376,0.02808,5.99902,0.93232,1.21512,1.01038
0.22153,1.3763,1.3406,1.15969,0.03297,0.03212,0.02778,6.02349,1.19637,1.16534,1.00808
0.22243,1.6265,1.314,1.14772,0.03897,0.03148,0.0275,6.04796,1.42537,1.15152,1.0058
0.22332,1.4558,1.2976,1.13605,0.03488,0.03109,0.02722,6.07216,1.28601,1.14626,1.00356
0.22422,0.81845,1.2996,1.12443,0.01961,0.03114,0.02694,6.09663,0.72883,1.1573,1.00131
0.22512,0.50478,1.2969,1.11297,0.01209,0.03107,0.02667,6.1211,0.45313,1.16419,0.99908
0.22601,0.63505,1.2926,1.10181,0.01521,0.03097,0.0264,6.1453,0.57458,1.16952,0.9969
0.22691,1.2923,1.2794,1.09069,0.03096,0.03065,0.02613,6.16977,1.17858,1.16681,0.99471
0.22781,0.88129,1.2759,1.07972,0.02111,0.03057,0.02587,6.19424,0.81013,1.17287,0.99254
0.22871,0.58066,1.2818,1.06892,0.01391,0.03071,0.02561,6.21871,0.538,1.18762,0.99038
0.2296,1.1283,1.2716,1.05839,0.02703,0.03047,0.02536,6.24291,1.05355,1.18736,0.98827
0.2305,0.9369,1.269,1.04789,0.02245,0.0304,0.02511,6.26738,0.88171,1.19424,0.98616
0.2314,0.87875,1.2673,1.03755,0.02105,0.03036,0.02486,6.29186,0.83345,1.20197,0.98406
0.23229,1.2671,1.2665,1.02746,0.03036,0.03034,0.02462,6.31606,1.21104,1.21047,0.98201
0.23319,0.68071,1.2585,1.01741,0.01631,0.03015,0.02438,6.34053,0.65565,1.21216,0.97995
0.23409,1.0756,1.2495,1.0075,0.02577,0.02994,0.02414,6.365,1.04401,1.2128,0.97791
0.23498,0.65415,1.2491,0.99783,0.01567,0.02993,0.02391,6.3892,0.63978,1.22165,0.97591
0.23588,1.9718,1.2508,0.9882,0.04724,0.02997,0.02368,6.41367,1.94327,1.2327,0.9739
0.23678,0.89401,1.2507,0.97869,0.02142,0.02996,0.02345,6.43814,0.88781,1.24203,0.97191
0.23768,1.2376,1.2423,0.96932,0.02965,0.02976,0.02322,6.46261,1.23838,1.24308,0.96993
0.23857,0.77705,1.2307,0.96018,0.01862,0.02949,0.023,6.48681,0.78337,1.24072,0.968
0.23947,0.20507,1.2386,0.95107,0.00491,0.02967,0.02279,6.51128,0.2083,1.25812,0.96605
0.24037,1.0273,1.2358,0.94207,0.02461,0.02961,0.02257,6.53575,1.05135,1.26473,0.96413
0.24126,0.42768,1.2297,0.9333,0.01025,0.02946,0.02236,6.55995,0.44094,1.26782,0.96223
0.24216,0.76883,1.2211,0.92455,0.01842,0.02926,0.02215,6.58442,0.79859,1.26837,0.96033
0.24306,1.3741,1.2329,0.91591,0.03292,0.02954,0.02194,6.6089,1.43792,1.29016,0.95845
0.24396,1.0326,1.2255,0.9074,0.02474,0.02936,0.02174,6.63337,1.08857,1.29193,0.95658
0.24485,0.44782,1.2165,0.89909,0.01073,0.02915,0.02154,6.65757,0.47555,1.29182,0.95475
0.24575,1.9129,1.2167,0.89079,0.04583,0.02915,0.02134,6.68204,2.04629,1.30154,0.95291
0.24665,1.1442,1.2196,0.88261,0.02741,0.02922,0.02115,6.70651,1.23297,1.31422,0.95109
0.24754,1.0274,1.2182,0.87463,0.02461,0.02919,0.02095,6.73071,1.11511,1.3222,0.9493
0.24844,0.99465,1.2025,0.86667,0.02383,0.02881,0.02076,6.75518,1.08743,1.31467,0.94751
0.24934,1.0553,1.2009,0.85881,0.02528,0.02877,0.02058,6.77965,1.16211,1.32245,0.94573
0.25023,0.96856,1.2147,0.85114,0.02321,0.0291,0.02039,6.80385,1.07422,1.34721,0.94399
0.25113,1.4115,1.2061,0.84348,0.03382,0.0289,0.02021,6.82832,1.57676,1.34731,0.94224
0.25203,0.67965,1.1994,0.83593,0.01628,0.02874,0.02003,6.85279,0.76468,1.34945,0.94051
0.25293,0.45924,1.1981,0.82847,0.011,0.0287,0.01985,6.87726,0.52039,1.35763,0.93879
0.25382,0.66912,1.2012,0.82119,0.01603,0.02878,0.01967,6.90146,0.76356,1.37074,0.9371
0.25472,1.1522,1.2021,0.81393,0.0276,0.0288,0.0195,6.92594,1.32417,1.38151,0.93541
0.25562,1.4491,1.1942,0.80676,0.03472,0.02861,0.01933,6.95041,1.67717,1.38215,0.93373
0.25651,1.2037,1.1845,0.79975,0.02884,0.02838,0.01916,6.97461,1.40286,1.38049,0.93208
0.25741,0.54643,1.1885,0.79276,0.01309,0.02847,0.01899,6.99908,0.64132,1.39488,0.93042
0.25831,1.2357,1.1907,0.78586,0.02961,0.02853,0.01883,7.02355,1.46044,1.40726,0.92878
0.25921,0.92201,1.1921,0.77904,0.02209,0.02856,0.01866,7.04802,1.09731,1.41875,0.92715
0.2601,0.62719,1.185,0.77238,0.01503,0.02839,0.0185,7.07222,0.75157,1.42,0.92555
0.261,1.2742,1.1801,0.76573,0.03053,0.02827,0.01835,7.09669,1.53747,1.42393,0.92394
0.2619,0.4292,1.1808,0.75916,0.01028,0.02829,0.01819,7.12116,0.52146,1.43462,0.92234
0.26279,0.6733,1.1843,0.75275,0.01613,0.02837,0.01803,7.14536,0.8236,1.44866,0.92078
0.26369,1.3329,1.1716,0.74634,0.03193,0.02807,0.01788,7.16983,1.64162,1.44296,0.91921
0.26459,0.98361,1.1764,0.74002,0.02357,0.02818,0.01773,7.1943,1.21971,1.45878,0.91765
0.26548,1.4471,1.1764,0.73384,0.03467,0.02818,0.01758,7.2185,1.80655,1.46861,0.91612
0.26638,0.49904,1.1726,0.72767,0.01196,0.02809,0.01743,7.24298,0.62723,1.47381,0.91459
0.26728,1.4503,1.1713,0.72157,0.03475,0.02806,0.01729,7.26745,1.83518,1.48214,0.91307
0.26817,0.45595,1.1641,0.71562,0.01092,0.02789,0.01715,7.29165,0.5808,1.48286,0.91157
0.26907,0.76546,1.1672,0.70967,0.01834,0.02796,0.017,7.31612,0.98162,1.4968,0.91008
0.26997,0.56607,1.1871,0.7038,0.01356,0.02844,0.01686,7.34059,0.73078,1.53252,0.90859
0.27087,1.1934,1.2199,0.698,0.02859,0.02923,0.01672,7.36506,1.55094,1.58538,0.90712
0.27176,1.4528,1.233,0.69233,0.03481,0.02954,0.01659,7.38926,1.90049,1.61296,0.90568
0.27266,0.63663,1.2446,0.68667,0.01525,0.02982,0.01645,7.41373,0.83834,1.63893,0.90423
0.27356,1.1415,1.2581,0.68108,0.02735,0.03014,0.01632,7.4382,1.51311,1.66766,0.9028
0.27445,1.1279,1.259,0.67561,0.02702,0.03016,0.01619,7.4624,1.50482,1.67973,0.90139
0.27535,1.1178,1.2497,0.67015,0.02678,0.02994,0.01606,7.48687,1.50114,1.67828,0.89998
0.27625,0.86536,1.2729,0.66475,0.02073,0.0305,0.01593,7.51134,1.16974,1.72063,0.89857
0.27714,-0.24799,1.2778,0.65948,-0.00594,0.03061,0.0158,7.53554,-0.33738,1.7384,0.8972
0.27804,0.73787,1.2768,0.65421,0.01768,0.03059,0.01567,7.56002,1.01038,1.74834,0.89582
0.27894,1.0705,1.2762,0.649,0.02565,0.03058,0.01555,7.58449,1.47536,1.75885,0.89445
0.27984,1.2838,1.3515,0.64386,0.03076,0.03238,0.01543,7.60896,1.78076,1.87467,0.8931
0.28073,0.0175,1.4046,0.63883,0.00042,0.03365,0.01531,7.63316,0.02442,1.96073,0.89177
0.28163,0.2295,1.4145,0.6338,0.0055,0.03389,0.01518,7.65763,0.32243,1.98723,0.89043
0.28253,0.97704,1.4309,0.62884,0.02341,0.03428,0.01507,7.6821,1.38143,2.02314,0.88911
0.28342,1.3261,1.4538,0.62398,0.03177,0.03483,0.01495,7.7063,1.8868,2.06849,0.88781
0.28432,0.72619,1.4794,0.61913,0.0174,0.03544,0.01483,7.73077,1.03981,2.11831,0.88652
0.28522,0.54705,1.4722,0.61434,0.01311,0.03527,0.01472,7.75524,0.78827,2.12136,0.88523
0.28612,-0.14481,1.478,0.6096,-0.00347,0.03541,0.01461,7.77971,-0.20998,2.14318,0.88395
0.28701,0.17556,1.5013,0.60497,0.00421,0.03597,0.01449,7.80391,0.25616,2.19053,0.8827
0.28791,0.86968,1.52,0.60034,0.02084,0.03642,0.01438,7.82838,1.27691,2.23175,0.88145
0.28881,0.16492,1.5382,0.59576,0.00395,0.03685,0.01427,7.85286,0.24366,2.27261,0.88021
0.2897,-0.11439,1.5429,0.59129,-0.00274,0.03697,0.01417,7.87706,-0.17005,2.29363,0.87899
0.2906,-0.10714,1.563,0.58682,-0.00257,0.03745,0.01406,7.90153,-0.16026,2.33797,0.87777
0.2915,0.09157,1.5866,0.5824,0.00219,0.03801,0.01395,7.926,0.13782,2.38799,0.87657
0.29239,0.23722,1.5897,0.57808,0.00568,0.03809,0.01385,7.9502,0.35922,2.40729,0.87538
0.29329,0.33967,1.5955,0.57376,0.00814,0.03823,0.01375,7.97467,0.51754,2.43097,0.8742
0.29419,0.16039,1.6144,0.56948,0.00384,0.03868,0.01364,7.99914,0.24588,2.47489,0.87302
0.29508,-0.01986,1.6335,0.56531,-0.00048,0.03914,0.01354,8.02334,-0.03063,2.51934,0.87187
0.29598,1.3986,1.6606,0.56113,0.03351,0.03979,0.01344,8.04781,2.17023,2.57678,0.87072
0.29688,1.1158,1.649,0.557,0.02673,0.03951,0.01334,8.07228,1.74195,2.57437,0.86957
0.29778,1.4819,1.6581,0.55292,0.0355,0.03973,0.01325,8.09675,2.32755,2.60429,0.86844
0.29867,0.42934,1.7015,0.54892,0.01029,0.04077,0.01315,8.12095,0.67838,2.68846,0.86733
0.29957,0.40698,1.7298,0.54493,0.00975,0.04144,0.01306,8.14542,0.64693,2.74967,0.86621
0.30047,0.6594,1.6967,0.54098,0.0158,0.04065,0.01296,8.1699,1.05448,2.71329,0.86511
0.30136,0.78723,1.7124,0.53712,0.01886,0.04103,0.01287,8.1941,1.26637,2.75464,0.86403
0.30226,0.62908,1.7447,0.53326,0.01507,0.0418,0.01278,8.21857,1.01802,2.82339,0.86295
0.30316,0.52995,1.7632,0.52944,0.0127,0.04224,0.01268,8.24304,0.86271,2.87034,0.86188
0.30406,0.49413,1.7501,0.52566,0.01184,0.04193,0.01259,8.26751,0.80919,2.86596,0.86082
0.30495,1.2266,1.7793,0.52197,0.02939,0.04263,0.01251,8.29171,2.02045,2.93086,0.85978
0.30585,1.3587,1.7885,0.51827,0.03255,0.04285,0.01242,8.31618,2.25128,2.96343,0.85874
0.30675,1.5693,1.8128,0.51462,0.0376,0.04343,0.01233,8.34065,2.61555,3.02139,0.85772
0.30764,0.70821,1.8121,0.51105,0.01697,0.04341,0.01224,8.36485,1.18723,3.03778,0.85671
0.30854,0.37438,1.8302,0.50747,0.00897,0.04385,0.01216,8.38932,0.63128,3.0861,0.8557
0.30944,0.65904,1.828,0.50393,0.01579,0.0438,0.01207,8.41379,1.11777,3.1004,0.8547
0.31033,0.35017,1.8525,0.50048,0.00839,0.04438,0.01199,8.43799,0.59733,3.16005,0.85373
0.31123,0.30963,1.85,0.49702,0.00742,0.04432,0.01191,8.46246,0.53124,3.17412,0.85275
0.31213,0.74843,1.8447,0.49359,0.01793,0.0442,0.01183,8.48694,1.29155,3.18336,0.85178
0.31302,1.5192,1.8764,0.49024,0.0364,0.04496,0.01175,8.51114,2.63662,3.25655,0.85083
0.31392,0.76116,1.8884,0.48689,0.01824,0.04524,0.01167,8.53561,1.32862,3.29625,0.84988
0.31482,0.68014,1.8953,0.48358,0.0163,0.04541,0.01159,8.56008,1.19402,3.32729,0.84894
0.31572,0.82058,1.9057,0.4803,0.01966,0.04566,0.01151,8.58455,1.44882,3.36471,0.84801
0.31661,1.1215,1.9193,0.47709,0.02687,0.04598,0.01143,8.60875,1.9913,3.40785,0.8471
0.31751,1.7568,1.9636,0.47388,0.04209,0.04704,0.01135,8.63322,3.13708,3.50636,0.84619
0.31841,0.11695,1.9643,0.4707,0.0028,0.04706,0.01128,8.65769,0.21002,3.52752,0.84529
0.3193,2.5074,1.9532,0.46759,0.06007,0.0468,0.0112,8.68189,4.52803,3.52722,0.8444
0.3202,0.46076,1.9902,0.46448,0.01104,0.04768,0.01113,8.70636,0.83677,3.61433,0.84352
0.3211,0.55668,2.0257,0.4614,0.01334,0.04853,0.01105,8.73083,1.01666,3.69951,0.84264
0.32199,1.8489,2.036,0.45838,0.0443,0.04878,0.01098,8.75503,3.39537,3.73896,0.84179
0.32289,0.87519,2.0209,0.45537,0.02097,0.04842,0.01091,8.7795,1.61622,3.73201,0.84093
0.32379,1.7934,2.0702,0.45239,0.04297,0.0496,0.01084,8.80398,3.33037,3.84439,0.84009
0.32469,1.8221,2.1158,0.44943,0.04365,0.05069,0.01077,8.82845,3.4025,3.95094,0.83925
0.32558,0.01778,2.1348,0.44654,0.00043,0.05115,0.0107,8.85265,0.03339,4.00831,0.83843
0.32648,1.1111,2.08,0.44365,0.02662,0.04983,0.01063,8.87712,2.09775,3.92704,0.83761
0.32738,1.3709,2.1075,0.44079,0.03284,0.05049,0.01056,8.90159,2.60255,4.00092,0.8368
0.32827,0.6724,2.1642,0.43798,0.01611,0.05185,0.01049,8.92579,1.28345,4.13093,0.836
0.32917,0.15695,2.22,0.43518,0.00376,0.05319,0.01043,8.95026,0.30122,4.26071,0.83521
0.33007,1.181,2.1643,0.4324,0.02829,0.05185,0.01036,8.97473,2.27903,4.17655,0.83442
0.33097,-0.58178,2.1777,0.42965,-0.01394,0.05217,0.01029,8.9992,-1.12882,4.22536,0.83364
0.33186,-0.52101,2.2269,0.42696,-0.01248,0.05335,0.01023,9.0234,-1.01635,4.34409,0.83288
0.33276,0.30997,2.276,0.42426,0.00743,0.05453,0.01016,9.04787,0.60795,4.46399,0.83212
0.33366,-0.04507,2.2542,0.42159,-0.00108,0.05401,0.0101,9.07234,-0.08887,4.44518,0.83137
0.33455,1.3853,2.2506,0.41898,0.03319,0.05392,0.01004,9.09654,2.74634,4.46179,0.83063
0.33545,0.48154,2.3372,0.41637,0.01154,0.056,0.00998,9.12102,0.95979,4.65843,0.82989
0.33635,0.43912,2.3614,0.41378,0.01052,0.05658,0.00991,9.14549,0.87994,4.73196,0.82916
0.33724,1.2967,2.3393,0.41124,0.03107,0.05605,0.00985,9.16969,2.6122,4.71251,0.82844
0.33814,0.86528,2.3365,0.4087,0.02073,0.05598,0.00979,9.19416,1.75242,4.73203,0.82772
0.33904,0.19568,2.4317,0.40618,0.00469,0.05826,0.00973,9.21863,0.39842,4.95108,0.82702
0.33993,-0.96523,2.4633,0.40372,-0.02313,0.05902,0.00967,9.24283,-1.9756,5.04179,0.82632
0.34083,1.5365,2.4435,0.40126,0.03681,0.05854,0.00961,9.2673,3.16152,5.02778,0.82563
0.34173,0.43568,2.432,0.39881,0.01044,0.05827,0.00955,9.29177,0.9012,5.03058,0.82494
0.34263,0.02187,2.5286,0.39639,0.00052,0.06058,0.0095,9.31624,0.04547,5.25798,0.82426
0.34352,1.1903,2.596,0.39402,0.02852,0.0622,0.00944,9.34044,2.48799,5.42622,0.8236
0.34442,0.70756,2.5942,0.39165,0.01695,0.06215,0.00938,9.36491,1.48672,5.4509,0.82293
0.34532,2.0646,2.5432,0.3893,0.04946,0.06093,0.00933,9.38938,4.36082,5.37171,0.82228
0.34621,0.39871,2.6343,0.387,0.00955,0.06311,0.00927,9.41358,0.8465,5.59284,0.82163
0.34711,-1.2649,2.6375,0.38469,-0.0303,0.06319,0.00922,9.43806,-2.69947,5.62879,0.82099
0.34801,0.5214,2.6132,0.38241,0.01249,0.06261,0.00916,9.46253,1.11852,5.60589,0.82035
0.34891,1.1699,2.5689,0.38014,0.02803,0.06155,0.00911,9.487,2.52269,5.5394,0.81972
0.3498,1.6072,2.6653,0.37793,0.03851,0.06386,0.00905,9.5112,3.48336,5.77662,0.8191
0.3507,1.1372,2.7224,0.3757,0.02725,0.06522,0.009,9.53567,2.4774,5.93078,0.81848
0.3516,1.8243,2.7966,0.3735,0.04371,0.067,0.00895,9.56014,3.99468,6.12374,0.81786
0.35249,0.53194,2.7061,0.37135,0.01274,0.06483,0.0089,9.58434,1.1707,5.9556,0.81726
0.35339,1.3435,2.7917,0.36919,0.03219,0.06688,0.00885,9.60881,2.9719,6.17541,0.81666
0.35429,-0.55704,2.8992,0.36704,-0.01335,0.06946,0.00879,9.63328,-1.23849,6.44591,0.81606
0.35518,0.88808,2.974,0.36495,0.02128,0.07125,0.00874,9.65748,1.98444,6.64548,0.81548
0.35608,1.9773,2.855,0.36284,0.04737,0.0684,0.00869,9.68195,4.44075,6.41194,0.8149
0.35698,-0.83422,2.9423,0.36076,-0.01999,0.07049,0.00864,9.70642,-1.88303,6.64145,0.81432
0.35787,0.93133,3.0763,0.35872,0.02231,0.0737,0.00859,9.73062,2.11272,6.97859,0.81376
0.35877,0.37501,3.2015,0.35668,0.00898,0.0767,0.00855,9.7551,0.85499,7.29918,0.81319
0.35967,0.3037,3.0412,0.35465,0.00728,0.07286,0.0085,9.77957,0.69589,6.96854,0.81264
0.36057,1.9058,3.1171,0.35264,0.04566,0.07468,0.00845,9.80404,4.38879,7.17824,0.81208
0.36146,-1.2822,3.2771,0.35067,-0.03072,0.07851,0.0084,9.82824,-2.96732,7.584,0.81154
0.36236,0.37318,3.4148,0.3487,0.00894,0.08181,0.00835,9.85271,0.86793,7.94208,0.81101
0.36326,0.58275,3.2516,0.34675,0.01396,0.0779,0.00831,9.87718,1.36209,7.60012,0.81047
0.36415,1.0923,3.2682,0.34483,0.02617,0.0783,0.00826,9.90138,2.56561,7.6764,0.80995
0.36505,-0.61743,3.5171,0.34292,-0.01479,0.08426,0.00822,9.92585,-1.45741,8.3019,0.80943
0.36595,0.32237,3.6928,0.34101,0.00772,0.08847,0.00817,9.95032,0.76469,8.75967,0.80892
0.36684,1.8012,3.5324,0.33915,0.04315,0.08463,0.00813,9.97452,4.29342,8.41999,0.80842
0.36774,0.83605,3.5021,0.33728,0.02003,0.0839,0.00808,9.99899,2.00264,8.38878,0.80792
0.36864,0.46587,3.8299,0.33543,0.01116,0.09176,0.00804,10.02346,1.12139,9.21893,0.80742
0.36954,2.3645,4.0482,0.3336,0.05665,0.09699,0.00799,10.04794,5.7194,9.79204,0.80693
0.37043,1.6689,3.9587,0.3318,0.03998,0.09484,0.00795,10.07214,4.05631,9.62173,0.80645
0.37133,2.1087,3.8232,0.33,0.05052,0.0916,0.00791,10.09661,5.15019,9.3376,0.80598
0.37223,-0.12495,4.228,0.32821,-0.00299,0.1013,0.00786,10.12108,-0.30665,10.37638,0.8055
0.37312,1.7993,4.6929,0.32646,0.04311,0.11243,0.00782,10.14528,4.437,11.57249,0.80504
0.37402,1.7633,4.4266,0.32471,0.04225,0.10605,0.00778,10.16975,4.36922,10.96853,0.80458
0.37492,-2.4687,4.2706,0.32297,-0.05915,0.10232,0.00774,10.19422,-6.14658,10.63297,0.80413
0.37582,1.4326,4.9114,0.32125,0.03432,0.11767,0.0077,10.21869,3.58404,12.28721,0.80368
0.37671,0.17634,5.397,0.31955,0.00422,0.1293,0.00766,10.24289,0.44325,13.5661,0.80325
0.37761,0.33602,5.14,0.31786,0.00805,0.12315,0.00762,10.26736,0.84867,12.9819,0.80281
0.37851,0.42896,5.0931,0.31618,0.01028,0.12202,0.00758,10.29183,1.08858,12.92484,0.80238
0.3794,-0.52519,5.7846,0.31453,-0.01258,0.13859,0.00754,10.31603,-1.33906,14.74879,0.80196
0.3803,1.6232,6.4615,0.31288,0.03889,0.15481,0.0075,10.3405,4.15827,16.55291,0.80154
0.3812,-0.02786,6.5827,0.31125,-0.00067,0.15771,0.00746,10.36498,-0.0717,16.94331,0.80112
0.38209,1.9743,6.5477,0.30964,0.0473,0.15687,0.00742,10.38918,5.10544,16.93201,0.80072
0.38299,-0.24215,7.2319,0.30803,-0.0058,0.17326,0.00738,10.41365,-0.62914,18.78952,0.80031
0.38389,-1.0939,8.3547,0.30644,-0.02621,0.20017,0.00734,10.43812,-2.85548,21.80885,0.79991
0.38478,-0.24237,10.906,0.30487,-0.00581,0.26129,0.0073,10.46232,-0.63561,28.60084,0.79952
0.38568,-6.8523,11.375,0.3033,-0.16417,0.27253,0.00727,10.48679,-18.05423,29.9705,0.79913
0.38658,4.5097,12.266,0.30174,0.10805,0.29387,0.00723,10.51126,11.93754,32.46908,0.79874