File: 2025/starling_2025/analysis/experimental_comparison/saxs_scattering/experiment/nurs_red1/mff_out.csv
#File Plotted Below: nurs_red1_clean.dat,,,,,,,,,,
,,,,,,,,,,
    #Fit from 0.01-0.15 with polymer MFF,,,,,,,,,,
#Initial search parameter for I0 = 24276.396,,,,,,,,,,
#Initial search parameter for Rg = 30,,,,,,,,,,
#Initial search parameter for nu = 0.499881,,,,,,,,,,
#BestFit for I0 = 24679.3 +- 35.08708,,,,,,,,,,
#BestFit for I(0)/I0 = 1.00000 +- 0.00142,,,,,,,,,,
#BestFit for Rg = 25.14035 +- 0.03407,,,,,,,,,,
#BestFit for nu = 0.60280 +- 0.00093,,,,,,,,,,
#BestFit reduced chisquared = 1.14220,,,,,,,,,,
#-------------,,,,,,,,,,
#-------------,,,,,,,,,,
,,,,,,,,,,
    #q,I(q),Error,fit,I(q)/I0,Error/I0,fit/I0,qRg,((qRg)^2)I(q)/I0,((qRg)^2)*Error/I0,((qRg)^2)*fit/I0
0.00226,7688,16518.95,24669.9,0.31152,0.66934,0.99962,0.05682,0.00101,0.00216,0.00323
0.00367,29456,4480.738,24631.7,1.19355,0.18156,0.99807,0.09219,0.01014,0.00154,0.00848
0.00507,22802.7,1927.518,24569.7,0.92396,0.0781,0.99556,0.12756,0.01503,0.00127,0.0162
0.00648,24778.1,1038.537,24484.7,1.004,0.04208,0.99211,0.16292,0.02665,0.00112,0.02633
0.00789,25130.54,704.5509,24377.7,1.01828,0.02855,0.98778,0.19829,0.04004,0.00112,0.03884
0.00929,23150.99,531.9407,24249.4,0.93807,0.02155,0.98258,0.23366,0.05121,0.00118,0.05364
0.0107,24215.33,441.8686,24100.9,0.9812,0.0179,0.97656,0.26903,0.07101,0.0013,0.07068
0.01211,24716.84,388.7704,23932.8,1.00152,0.01575,0.96975,0.30439,0.09279,0.00146,0.08985
0.01351,24063.7,349.7029,23746.2,0.97506,0.01417,0.96219,0.33976,0.11256,0.00164,0.11107
0.01492,24009.91,325.9985,23541.9,0.97288,0.01321,0.95391,0.37512,0.1369,0.00186,0.13423
0.01633,23622.67,300.0426,23320.8,0.95718,0.01216,0.94495,0.41049,0.16129,0.00205,0.15923
0.01773,23471.22,286.6726,23083.7,0.95105,0.01162,0.93535,0.44586,0.18906,0.00231,0.18594
0.01914,22733.52,275.7473,22831.5,0.92116,0.01117,0.92513,0.48123,0.21332,0.00259,0.21424
0.02055,23083.22,276.8825,22565.1,0.93533,0.01122,0.91433,0.51659,0.24961,0.00299,0.24401
0.02196,22727.36,271.3732,22285.4,0.92091,0.011,0.903,0.55196,0.28056,0.00335,0.27511
0.02336,21895.09,263.4216,21993.2,0.88718,0.01067,0.89116,0.58733,0.30604,0.00368,0.30741
0.02477,21926.89,258.5295,21689.4,0.88847,0.01048,0.87885,0.62269,0.3445,0.00406,0.34077
0.02618,21773.64,244.938,21374.9,0.88226,0.00992,0.86611,0.65806,0.38206,0.0043,0.37506
0.02758,21522.82,232.1086,21050.6,0.8721,0.0094,0.85296,0.69343,0.41934,0.00452,0.41014
0.02899,20542.35,220.1744,20717.3,0.83237,0.00892,0.83946,0.72879,0.44211,0.00474,0.44587
0.0304,20132.46,210.4669,20375.9,0.81576,0.00853,0.82562,0.76416,0.47636,0.00498,0.48212
0.0318,19834.46,205.1143,20027.2,0.80369,0.00831,0.8115,0.79953,0.51375,0.00531,0.51875
0.03321,19826.29,197.971,19672.2,0.80336,0.00802,0.79711,0.8349,0.55998,0.00559,0.55563
0.03462,19207.4,201.9228,19311.8,0.77828,0.00818,0.78251,0.87026,0.58943,0.0062,0.59264
0.03602,19264.13,202.9761,18946.7,0.78058,0.00822,0.76772,0.90563,0.6402,0.00675,0.62965
0.03743,18226.66,199.6007,18577.9,0.73854,0.00809,0.75277,0.941,0.65396,0.00716,0.66656
0.03884,18134.11,196.8863,18206.3,0.73479,0.00798,0.73771,0.97636,0.70046,0.00761,0.70325
0.04024,17932.07,193.3538,17832.7,0.7266,0.00783,0.72257,1.01173,0.74375,0.00802,0.73962
0.04165,17305.56,190.7944,17457.8,0.70122,0.00773,0.70739,1.0471,0.76882,0.00848,0.77559
0.04306,16712.46,191.0845,17082.4,0.67718,0.00774,0.69217,1.08246,0.79348,0.00907,0.81104
0.04446,16460.8,194.8023,16706.9,0.66699,0.00789,0.67696,1.11783,0.83343,0.00986,0.84589
0.04587,16366.12,196.5413,16332.1,0.66315,0.00796,0.66177,1.1532,0.8819,0.01059,0.88007
0.04728,16226.9,192.4798,15958.5,0.65751,0.0078,0.64663,1.18857,0.92886,0.01102,0.91349
0.04868,15719.26,185.0599,15586.6,0.63694,0.0075,0.63157,1.22393,0.95415,0.01123,0.9461
0.05009,15268.05,179.8693,15217.2,0.61866,0.00729,0.6166,1.2593,0.98109,0.01156,0.97782
0.0515,14844.35,177.2613,14850.8,0.60149,0.00718,0.60175,1.29467,1.00819,0.01204,1.00863
0.0529,14287.59,175.1631,14488,0.57893,0.0071,0.58705,1.33003,1.02412,0.01256,1.03848
0.05431,14321.04,173.5331,14129.3,0.58029,0.00703,0.57252,1.3654,1.08184,0.01311,1.06735
0.05572,13534.61,168.2601,13775.5,0.54842,0.00682,0.55818,1.40077,1.07608,0.01338,1.09523
0.05712,13521.18,165.4921,13427,0.54787,0.00671,0.54406,1.43613,1.12998,0.01383,1.12211
0.05853,12968.44,163.4116,13084.5,0.52548,0.00662,0.53018,1.4715,1.13782,0.01434,1.14801
0.05994,12598.42,161.2336,12748.6,0.51048,0.00653,0.51657,1.50687,1.15913,0.01483,1.17295
0.06134,12388.43,157.3966,12419.7,0.50198,0.00638,0.50324,1.54223,1.19394,0.01517,1.19696
0.06275,12161.06,156.8496,12098,0.49276,0.00636,0.49021,1.5776,1.2264,0.01582,1.22004
0.06416,11750.04,153.8514,11783.3,0.47611,0.00623,0.47746,1.61297,1.23868,0.01622,1.24219
0.06557,11258.31,152.4216,11475.8,0.45618,0.00618,0.465,1.64834,1.23946,0.01678,1.2634
0.06697,11418.79,150.8722,11175.5,0.46269,0.00611,0.45283,1.6837,1.31165,0.01733,1.2837
0.06838,10781.04,147.6963,10882.3,0.43685,0.00598,0.44095,1.71907,1.29097,0.01769,1.30309
0.06979,10518.86,146.0399,10596.4,0.42622,0.00592,0.42936,1.75444,1.31193,0.01821,1.3216
0.07119,10133.23,143.4331,10317.6,0.4106,0.00581,0.41807,1.7898,1.3153,0.01862,1.33923
0.0726,9930.95,142.7353,10046.1,0.4024,0.00578,0.40706,1.82517,1.34049,0.01927,1.35603
0.07401,9672.2,142.3499,9781.78,0.39192,0.00577,0.39636,1.86054,1.35665,0.01997,1.37202
0.07541,9546.26,139.8382,9524.77,0.38681,0.00567,0.38594,1.8959,1.39038,0.02037,1.38725
0.07682,9615.65,139.8767,9275.02,0.38962,0.00567,0.37582,1.93127,1.45322,0.02114,1.40174
0.07823,9148.24,136.6308,9032.59,0.37068,0.00554,0.366,1.96664,1.43368,0.02141,1.41556
0.07963,8656.13,141.423,8797.47,0.35074,0.00573,0.35647,2.00201,1.40579,0.02297,1.42875
0.08104,8670.57,143.8634,8569.66,0.35133,0.00583,0.34724,2.03737,1.45833,0.0242,1.44135
0.08245,8479.85,146.3429,8348.99,0.3436,0.00593,0.3383,2.07274,1.4762,0.02548,1.45342
0.08385,8034.58,146.7634,8135.32,0.32556,0.00595,0.32964,2.1081,1.44682,0.02643,1.46496
0.08526,7941.09,146.9662,7928.42,0.32177,0.00596,0.32126,2.14347,1.47837,0.02736,1.47601
0.08667,7777.77,139.4819,7728.16,0.31515,0.00565,0.31314,2.17884,1.49614,0.02683,1.4866
0.08807,7540.13,136.4422,7534.34,0.30552,0.00553,0.30529,2.21421,1.4979,0.02711,1.49675
0.08948,7426.48,134.3749,7346.78,0.30092,0.00544,0.29769,2.24957,1.52283,0.02755,1.50648
0.09089,6996.69,131.1962,7165.32,0.2835,0.00532,0.29034,2.28494,1.48016,0.02775,1.51584
0.09229,7041.75,128.5284,6989.77,0.28533,0.00521,0.28322,2.32031,1.53617,0.02804,1.52483
0.0937,6750.91,133.627,6819.96,0.27355,0.00541,0.27634,2.35567,1.51796,0.03005,1.53348
0.09511,6677.52,136.3375,6655.7,0.27057,0.00552,0.26969,2.39104,1.54688,0.03158,1.54182
0.09651,6526.8,137.4625,6496.83,0.26446,0.00557,0.26325,2.42641,1.55702,0.03279,1.54987
0.09792,6615.27,131.5691,6343.15,0.26805,0.00533,0.25702,2.46178,1.62447,0.03231,1.55765
0.09933,6335.95,128.3486,6194.51,0.25673,0.0052,0.251,2.49714,1.6009,0.03243,1.56517
0.10073,5969.99,125.5815,6050.71,0.2419,0.00509,0.24517,2.53251,1.55147,0.03264,1.57245
0.10214,5813.63,123.3017,5911.65,0.23557,0.005,0.23954,2.56787,1.55332,0.03294,1.57951
0.10355,5956.58,122.0063,5777.1,0.24136,0.00494,0.23409,2.60324,1.63565,0.0335,1.58637
0.10496,5587.53,120.251,5646.95,0.22641,0.00487,0.22881,2.63861,1.57629,0.03392,1.59306
0.10636,5619.68,119.7233,5521.06,0.22771,0.00485,0.22371,2.67398,1.62815,0.03469,1.59958
0.10777,5425.27,118.2011,5399.29,0.21983,0.00479,0.21878,2.70935,1.61368,0.03516,1.60596
0.10918,5252.61,117.1934,5281.48,0.21283,0.00475,0.214,2.74472,1.60339,0.03577,1.6122
0.11058,5121.28,115.8427,5167.56,0.20751,0.00469,0.20939,2.78007,1.60382,0.03628,1.61832
0.11199,5176.39,115.84,5057.25,0.20975,0.00469,0.20492,2.81544,1.66259,0.03721,1.62432
0.1134,4793.4,114.2365,4950.45,0.19423,0.00463,0.20059,2.85081,1.57851,0.03762,1.63023
0.1148,4714.39,113.6425,4847.03,0.19103,0.0046,0.1964,2.88618,1.59125,0.03836,1.63602
0.11621,4562.5,112.4281,4746.85,0.18487,0.00456,0.19234,2.92155,1.57796,0.03888,1.64172
0.11762,4683.39,112.1334,4649.76,0.18977,0.00454,0.18841,2.95692,1.65923,0.03973,1.64731
0.11902,4764.92,111.4762,4555.6,0.19307,0.00452,0.18459,2.99229,1.72874,0.04044,1.6528
0.12043,4434.94,110.1022,4464.3,0.1797,0.00446,0.18089,3.02764,1.64726,0.0409,1.65817
0.12184,4487.5,109.3684,4375.64,0.18183,0.00443,0.1773,3.06301,1.70595,0.04158,1.66343
0.12324,4000.02,107.935,4289.59,0.16208,0.00437,0.17381,3.09838,1.55596,0.04199,1.6686
0.12465,4128.28,106.5049,4206.07,0.16728,0.00432,0.17043,3.13375,1.64272,0.04238,1.67368
0.12606,4066.76,105.6498,4125.02,0.16478,0.00428,0.16714,3.16912,1.65498,0.04299,1.67869
0.12746,4256.01,105.661,4046.35,0.17245,0.00428,0.16396,3.20449,1.77087,0.04396,1.68363
0.12887,3872.81,105.5295,3970.02,0.15693,0.00428,0.16086,3.23983,1.64717,0.04488,1.68852
0.13028,3833.44,104.3453,3895.86,0.15533,0.00423,0.15786,3.27521,1.66622,0.04535,1.69335
0.13168,3975.78,104.1576,3823.84,0.1611,0.00422,0.15494,3.31058,1.76562,0.04626,1.69814
0.13309,3710.32,103.4972,3753.89,0.15034,0.00419,0.15211,3.34595,1.68312,0.04695,1.70289
0.1345,3656.53,102.9431,3685.91,0.14816,0.00417,0.14935,3.38132,1.69398,0.04769,1.70759
0.1359,3574.1,102.3848,3619.84,0.14482,0.00415,0.14667,3.41669,1.69061,0.04843,1.71225
0.13731,3457.09,101.7245,3555.59,0.14008,0.00412,0.14407,3.45206,1.6693,0.04912,1.71686
0.13872,3601.32,103.8948,3493.12,0.14592,0.00421,0.14154,3.4874,1.77473,0.0512,1.72141
0.14012,3451.68,106.194,3432.28,0.13986,0.0043,0.13907,3.52278,1.73567,0.0534,1.72591
0.14153,3499.69,107.9843,3373.04,0.14181,0.00438,0.13667,3.55815,1.79533,0.0554,1.73036
0.14294,3606.23,109.3984,3315.37,0.14612,0.00443,0.13434,3.59352,1.88695,0.05724,1.73475
0.14435,3372.21,109.8567,3259.21,0.13664,0.00445,0.13206,3.62889,1.7994,0.05862,1.73911
0.14575,3366.8,105.1404,3204.53,0.13642,0.00426,0.12985,3.66426,1.83171,0.0572,1.74343
0.14716,3204.12,102.9111,3151.29,0.12983,0.00417,0.12769,3.69963,1.77702,0.05707,1.74772
0.14856,3046.03,101.1994,3099.47,0.12342,0.0041,0.12559,3.73497,1.72177,0.0572,1.75198
0.14997,2874.41,100.0616,3048.96,0.11647,0.00405,0.12354,3.77035,1.65569,0.05764,1.75623
0.15138,3076.02,99.71863,2999.76,0.12464,0.00404,0.12155,3.80572,1.80521,0.05852,1.76046
0.15279,3137.07,98.71305,2951.81,0.12711,0.004,0.11961,3.84109,1.87542,0.05901,1.76467
0.15419,3115.28,98.58361,2905.08,0.12623,0.00399,0.11771,3.87646,1.89686,0.06003,1.76887
0.1556,2917.66,97.77136,2859.53,0.11822,0.00396,0.11587,3.91183,1.80909,0.06062,1.77305
0.15701,2765.15,96.92184,2815.1,0.11204,0.00393,0.11407,3.9472,1.74568,0.06119,1.77721
0.15841,2961.29,96.26026,2771.8,0.11999,0.0039,0.11231,3.98254,1.90313,0.06186,1.78135
0.15982,3001.84,95.53656,2729.5,0.12163,0.00387,0.1106,4.01792,1.96361,0.06249,1.78546
0.16123,2639.36,94.21,2688.21,0.10695,0.00382,0.10893,4.05329,1.75703,0.06272,1.78955
0.16263,2746.95,93.6247,2647.91,0.11131,0.00379,0.10729,4.08866,1.86071,0.06342,1.79362
0.16404,2729.97,93.23124,2608.56,0.11062,0.00378,0.1057,4.12403,1.88134,0.06425,1.79768
0.16545,2536.23,92.2095,2570.15,0.10277,0.00374,0.10414,4.1594,1.77794,0.06464,1.80172
0.16685,2679.59,92.16346,2532.68,0.10858,0.00373,0.10262,4.19474,1.91049,0.06571,1.80575
0.16826,2530.67,91.28101,2496.07,0.10254,0.0037,0.10114,4.23011,1.83487,0.06618,1.80979
0.16967,2509.48,90.43306,2460.32,0.10168,0.00366,0.09969,4.26549,1.85007,0.06667,1.81382
0.17107,2441.91,90.2564,2425.4,0.09895,0.00366,0.09828,4.30086,1.83023,0.06765,1.81786
0.17248,2591.85,90.35808,2391.3,0.10502,0.00366,0.09689,4.33623,1.9747,0.06884,1.8219
0.17389,2401.99,90.15517,2357.98,0.09733,0.00365,0.09554,4.3716,1.86002,0.06981,1.82594
0.17529,2462.32,90.3473,2325.43,0.09977,0.00366,0.09423,4.40697,1.93772,0.0711,1.82999
0.1767,2522.99,89.49164,2293.63,0.10223,0.00363,0.09294,4.44231,2.01744,0.07156,1.83404
0.17811,2362.8,89.15093,2262.53,0.09574,0.00361,0.09168,4.47768,1.91955,0.07243,1.83809
0.17951,2276.73,88.74187,2232.11,0.09225,0.0036,0.09044,4.51305,1.87897,0.07324,1.84215
0.18092,2253.62,87.62938,2202.36,0.09132,0.00355,0.08924,4.54842,1.88916,0.07346,1.8462
0.18233,2273.42,87.70114,2173.27,0.09212,0.00355,0.08806,4.58379,1.93552,0.07467,1.85025
0.18374,2130.6,87.32095,2144.8,0.08633,0.00354,0.08691,4.61917,1.84203,0.07549,1.85431
0.18514,2039.38,87.90977,2116.96,0.08264,0.00356,0.08578,4.65454,1.79027,0.07717,1.85837
0.18655,2231.07,88.19361,2089.73,0.0904,0.00357,0.08468,4.68988,1.9884,0.0786,1.86244
0.18795,2083.86,87.84836,2063.07,0.08444,0.00356,0.0836,4.72525,1.88532,0.07948,1.86651
0.18936,2104.68,87.3208,2036.98,0.08528,0.00354,0.08254,4.76062,1.93277,0.08019,1.8706
0.19077,2068.81,86.88816,2011.44,0.08383,0.00352,0.0815,4.79599,1.92817,0.08098,1.8747
0.19218,2057.49,86.2574,1986.44,0.08337,0.0035,0.08049,4.83136,1.94601,0.08158,1.8788
0.19358,1965.54,86.17115,1961.95,0.07964,0.00349,0.0795,4.86674,1.88636,0.0827,1.88292
0.19499,2086.08,85.57464,1937.97,0.08453,0.00347,0.07853,4.90211,2.03125,0.08333,1.88703
0.1964,2032.76,85.08319,1914.49,0.08237,0.00345,0.07757,4.93745,2.00798,0.08405,1.89115
0.1978,1995.42,85.08171,1891.47,0.08085,0.00345,0.07664,4.97282,1.99943,0.08525,1.89528
0.19921,1929.29,87.79659,1868.9,0.07817,0.00356,0.07573,5.00819,1.96077,0.08923,1.89939
0.20062,1849.55,88.82213,1846.77,0.07494,0.0036,0.07483,5.04356,1.90637,0.09155,1.90351
0.20202,1866.88,89.91535,1825.07,0.07565,0.00364,0.07395,5.07893,1.95132,0.09398,1.90761
0.20343,1781.75,90.71772,1803.78,0.0722,0.00368,0.07309,5.11431,1.88837,0.09615,1.91172
0.20484,1807.09,90.11637,1782.92,0.07322,0.00365,0.07224,5.14965,1.94179,0.09683,1.91582
0.20624,1778.06,87.60442,1762.44,0.07205,0.00355,0.07141,5.18502,1.93693,0.09543,1.91992
0.20765,1807.82,86.55999,1742.35,0.07325,0.00351,0.0706,5.22039,1.99631,0.09559,1.92401
0.20906,1919.88,85.9799,1722.63,0.07779,0.00348,0.0698,5.25576,2.14888,0.09624,1.92811
0.21046,1872.84,85.54595,1703.29,0.07589,0.00347,0.06902,5.29113,2.12454,0.09704,1.9322
0.21187,1738.17,84.37853,1684.3,0.07043,0.00342,0.06825,5.3265,1.99822,0.097,1.93629
0.21328,1603.12,84.18267,1665.65,0.06496,0.00341,0.06749,5.36188,1.86752,0.09807,1.94037
0.21468,1682.65,84.29007,1647.35,0.06818,0.00342,0.06675,5.39722,1.9861,0.09949,1.94444
0.21609,1642.23,83.76036,1629.37,0.06654,0.00339,0.06602,5.43259,1.96388,0.10017,1.9485
0.2175,1695.52,82.82404,1611.7,0.0687,0.00336,0.06531,5.46796,2.05409,0.10034,1.95255
0.2189,1515.94,82.28914,1594.34,0.06143,0.00333,0.0646,5.50333,1.86037,0.10099,1.95659
0.22031,1611.07,81.79649,1577.27,0.06528,0.00331,0.06391,5.5387,2.00261,0.10168,1.9606
0.22172,1717.57,81.71048,1560.49,0.0696,0.00331,0.06323,5.57407,2.16235,0.10287,1.9646
0.22313,1620.01,81.15005,1544,0.06564,0.00329,0.06256,5.60945,2.0655,0.10347,1.96858
0.22453,1449.73,80.74649,1527.79,0.05874,0.00327,0.06191,5.64479,1.87176,0.10425,1.97254
0.22594,1586.24,80.61599,1511.84,0.06427,0.00327,0.06126,5.68016,2.07375,0.10539,1.97648
0.22734,1594.91,80.62159,1496.148,0.06463,0.00327,0.06062,5.71553,2.11114,0.10672,1.98041
0.22875,1432.04,80.29556,1480.71,0.05803,0.00325,0.06,5.7509,1.91908,0.1076,1.98431
0.23016,1431.69,79.89254,1465.53,0.05801,0.00324,0.05938,5.78627,1.94229,0.10839,1.9882
0.23157,1528.05,79.40236,1450.59,0.06192,0.00322,0.05878,5.82164,2.09843,0.10904,1.99207
0.23297,1496.92,79.64899,1435.89,0.06065,0.00323,0.05818,5.85702,2.08074,0.11071,1.99591
0.23438,1387.68,79.97238,1421.43,0.05623,0.00324,0.0576,5.89236,1.95225,0.11251,1.99973
0.23579,1453.37,80.68418,1407.18,0.05889,0.00327,0.05702,5.92773,2.06928,0.11488,2.00352
0.23719,1372.53,80.56002,1393.16,0.05561,0.00326,0.05645,5.9631,1.97757,0.11607,2.00729
0.2386,1514.13,80.47521,1379.34,0.06135,0.00326,0.05589,5.99847,2.20755,0.11733,2.01103
0.24001,1451.69,79.39937,1365.72,0.05882,0.00322,0.05534,6.03384,2.14155,0.11713,2.01473
0.24141,1327.08,79.13007,1352.31,0.05377,0.00321,0.0548,6.06921,1.98075,0.11811,2.01841
0.24282,1397.93,78.49265,1339.11,0.05664,0.00318,0.05426,6.10456,2.11087,0.11852,2.02205
0.24423,1349.98,78.28154,1326.09,0.0547,0.00317,0.05373,6.13993,2.06215,0.11958,2.02567
0.24563,1488.91,78.28217,1313.27,0.06033,0.00317,0.05321,6.1753,2.30065,0.12096,2.02926
0.24704,1330.7,77.31609,1300.63,0.05392,0.00313,0.0527,6.21067,2.07981,0.12084,2.03282
0.24845,1310.34,76.9474,1288.19,0.05309,0.00312,0.0522,6.24604,2.07138,0.12164,2.03636
0.24985,1405.91,77.01853,1275.92,0.05697,0.00312,0.0517,6.28141,2.2477,0.12313,2.03988
0.25126,1303.36,76.60876,1263.84,0.05281,0.0031,0.05121,6.31678,2.10728,0.12386,2.04338
0.25267,1232.87,76.86847,1251.94,0.04996,0.00311,0.05073,6.35213,2.01569,0.12568,2.04686
0.25407,1204.18,76.38975,1240.2,0.04879,0.0031,0.05025,6.3875,1.99076,0.12629,2.05032
0.25548,1278.71,76.11275,1228.64,0.05181,0.00308,0.04978,6.42287,2.13746,0.12723,2.05376
0.25689,1312.23,75.87251,1217.25,0.05317,0.00307,0.04932,6.45824,2.21771,0.12823,2.05719
0.25829,1197.11,77.96556,1206.02,0.04851,0.00316,0.04887,6.49361,2.04538,0.13321,2.0606
0.2597,1324.13,80.05298,1194.95,0.05365,0.00324,0.04842,6.52898,2.28712,0.13827,2.06399
0.26111,1320.89,81.08559,1184.05,0.05352,0.00329,0.04798,6.56435,2.30631,0.14158,2.06737
0.26251,1230.47,81.04105,1173.3,0.04986,0.00328,0.04754,6.5997,2.17163,0.14303,2.07074
0.26392,1307.32,82.60778,1162.71,0.05297,0.00335,0.04711,6.63507,2.33206,0.14736,2.07409
0.26533,1401.67,79.84281,1152.26,0.0568,0.00324,0.04669,6.67044,2.52709,0.14395,2.07743
0.26673,1289.66,78.19742,1141.97,0.05226,0.00317,0.04627,6.70581,2.34987,0.14248,2.08076
0.26814,1309.1,77.74355,1131.82,0.05304,0.00315,0.04586,6.74118,2.41052,0.14315,2.08408
0.26955,1221.77,77.22925,1121.81,0.04951,0.00313,0.04546,6.77655,2.27339,0.1437,2.08739
0.27096,1246.87,76.43609,1111.94,0.05052,0.0031,0.04506,6.81192,2.34438,0.14372,2.09069
0.27236,1152.01,75.6002,1102.22,0.04668,0.00306,0.04466,6.84727,2.18855,0.14362,2.09397
0.27377,1095.71,75.43143,1092.63,0.0444,0.00306,0.04427,6.88264,2.10316,0.14479,2.09725
0.27518,1207.07,75.30247,1083.17,0.04891,0.00305,0.04389,6.91801,2.34078,0.14603,2.10051
0.27658,1126.26,75.05815,1073.84,0.04564,0.00304,0.04351,6.95338,2.20647,0.14705,2.10377
0.27799,1145.39,74.75324,1064.64,0.04641,0.00303,0.04314,6.98875,2.26683,0.14794,2.10702
0.2794,1124.19,74.19582,1055.56,0.04555,0.00301,0.04277,7.02412,2.24745,0.14833,2.11025
0.2808,1039.67,74.08932,1046.61,0.04213,0.003,0.04241,7.05947,2.09945,0.14961,2.11347
0.28221,1197.45,74.25616,1037.78,0.04852,0.00301,0.04205,7.09484,2.44236,0.15146,2.11668
0.28362,1164.4,74.05379,1029.06,0.04718,0.003,0.0417,7.13021,2.39869,0.15255,2.11988
0.28502,1048.5,74.10036,1020.46,0.04248,0.003,0.04135,7.16558,2.18141,0.15417,2.12307
0.28643,1152.2,73.55878,1011.97,0.04669,0.00298,0.041,7.20095,2.42088,0.15455,2.12626
0.28784,1017.29,73.40483,1003.6,0.04122,0.00297,0.04067,7.23632,2.15848,0.15575,2.12943
0.28924,1001.73,73.16235,995.341,0.04059,0.00296,0.04033,7.27169,2.14629,0.15676,2.1326
0.29065,955.18,73.07552,987.194,0.0387,0.00296,0.04,7.30703,2.0665,0.1581,2.13576
0.29206,1098.46,72.94399,979.147,0.04451,0.00296,0.03967,7.34241,2.39954,0.15934,2.13891
0.29346,965.42,72.94136,971.206,0.03912,0.00296,0.03935,7.37778,2.12929,0.16088,2.14205
0.29487,1041.8,72.65974,963.368,0.04221,0.00294,0.03904,7.41315,2.31983,0.1618,2.14518
0.29628,992.99,72.42551,955.631,0.04024,0.00293,0.03872,7.44852,2.23229,0.16282,2.14831
0.29768,943.15,71.86867,947.9919,0.03822,0.00291,0.03841,7.48389,2.14044,0.1631,2.15143
0.29909,1097.3,71.94656,940.451,0.04446,0.00292,0.03811,7.51926,2.51387,0.16483,2.15453
0.3005,1123.4,72.10652,933.01,0.04552,0.00292,0.03781,7.5546,2.59791,0.16675,2.15763
0.3019,910.66,71.57791,925.658,0.0369,0.0029,0.03751,7.58998,2.12571,0.16708,2.16072
0.30331,956.95,71.38093,918.398,0.03878,0.00289,0.03721,7.62535,2.25463,0.16818,2.1638
0.30472,950.93,71.21305,911.229,0.03853,0.00289,0.03692,7.66072,2.26128,0.16934,2.16687
0.30612,957.04,70.83047,904.15,0.03878,0.00287,0.03664,7.69609,2.29687,0.16999,2.16994
0.30753,948.09,70.51238,897.158,0.03842,0.00286,0.03635,7.73146,2.29636,0.17079,2.17299
0.30894,941.74,70.31076,890.252,0.03816,0.00285,0.03607,7.76683,2.30189,0.17186,2.17604
0.31034,971.73,70.28905,883.437,0.03937,0.00285,0.0358,7.80217,2.39687,0.17337,2.17908
0.31175,974.03,70.32103,876.699,0.03947,0.00285,0.03552,7.83755,2.42437,0.17503,2.18212
0.31316,908.83,70.39439,870.044,0.03683,0.00285,0.03525,7.87292,2.28255,0.1768,2.18514
0.31457,958.66,70.58143,863.47,0.03884,0.00286,0.03499,7.90829,2.42938,0.17886,2.18816
0.31597,1009.93,70.30819,856.974,0.04092,0.00285,0.03472,7.94366,2.58225,0.17977,2.19117
0.31738,924.62,70.53072,850.555,0.03747,0.00286,0.03446,7.97903,2.38523,0.18195,2.19417
0.31879,964.59,72.90837,844.217,0.03908,0.00295,0.03421,8.01437,2.51043,0.18975,2.19715
0.32019,912.69,73.82883,837.95,0.03698,0.00299,0.03395,8.04974,2.39637,0.19385,2.20013
0.3216,974.53,74.42777,831.755,0.03949,0.00302,0.0337,8.08511,2.58128,0.19714,2.2031
0.32301,913.6,75.44435,825.633,0.03702,0.00306,0.03345,8.12049,2.44111,0.20158,2.20606
0.32441,994.5,74.21018,819.583,0.0403,0.00301,0.03321,8.15586,2.68047,0.20002,2.20902
0.32582,905.1,72.90565,813.603,0.03667,0.00295,0.03297,8.19123,2.46071,0.19821,2.21196
0.32723,975.1,72.30009,807.691,0.03951,0.00293,0.03273,8.2266,2.67397,0.19827,2.21489
0.32863,788.91,71.68596,801.853,0.03197,0.0029,0.03249,8.26194,2.18202,0.19827,2.21782
0.33004,870.4,71.48195,796.077,0.03527,0.0029,0.03226,8.29731,2.42807,0.19941,2.22074
0.33145,902.95,70.9038,790.367,0.03659,0.00287,0.03203,8.33268,2.54039,0.19948,2.22364
0.33285,862.23,70.71502,784.721,0.03494,0.00287,0.0318,8.36806,2.44647,0.20064,2.22654
0.33426,815.66,70.50657,779.14,0.03305,0.00286,0.03157,8.40343,2.33393,0.20175,2.22944
0.33567,783.27,70.04265,773.621,0.03174,0.00284,0.03135,8.4388,2.26016,0.20211,2.23232
0.33707,887.65,70.0381,768.164,0.03597,0.00284,0.03113,8.47417,2.58287,0.2038,2.23519
0.33848,937.86,70.28686,762.771,0.038,0.00285,0.03091,8.50951,2.75178,0.20623,2.23805
0.33989,844.45,69.93533,757.434,0.03422,0.00283,0.03069,8.54488,2.49835,0.20691,2.24091
0.34129,825.22,69.82536,752.155,0.03344,0.00283,0.03048,8.58026,2.46171,0.2083,2.24375
0.3427,804.15,69.29369,746.933,0.03258,0.00281,0.03027,8.61563,2.41867,0.20842,2.24658
0.34411,818.31,68.957,741.769,0.03316,0.00279,0.03006,8.651,2.48151,0.20911,2.2494
0.34551,858.6,69.01945,736.66,0.03479,0.0028,0.02985,8.68637,2.62503,0.21102,2.25222
0.34692,808.59,68.645,731.606,0.03276,0.00278,0.02964,8.72174,2.49231,0.21158,2.25502
0.34833,752.32,68.44554,726.609,0.03048,0.00277,0.02944,8.75708,2.3377,0.21268,2.25781
0.34973,815.68,68.05129,721.662,0.03305,0.00276,0.02924,8.79245,2.55509,0.21317,2.26058
0.35114,677.1,68.05624,716.767,0.02744,0.00276,0.02904,8.82782,2.13809,0.2149,2.26335
0.35255,873.82,67.91352,711.922,0.03541,0.00275,0.02885,8.86319,2.78144,0.21617,2.26611
0.35396,763.83,68.01994,707.128,0.03095,0.00276,0.02865,8.89856,2.45078,0.21824,2.26885
0.35536,716.13,67.82191,702.383,0.02902,0.00275,0.02846,8.93393,2.31603,0.21934,2.27157
0.35677,835.42,67.9856,697.69,0.03385,0.00275,0.02827,8.96928,2.72325,0.22161,2.27428
0.35818,780.94,67.55599,693.041,0.03164,0.00274,0.02808,9.00465,2.56577,0.22195,2.27698
0.35958,767.07,67.60858,688.438,0.03108,0.00274,0.0279,9.04002,2.54004,0.22388,2.27966
0.36099,673.76,67.3524,683.881,0.0273,0.00273,0.02771,9.07539,2.24855,0.22478,2.28233
0.3624,725.96,67.56025,679.369,0.02942,0.00274,0.02753,9.11076,2.44168,0.22723,2.28498
0.3638,754.3,67.37258,674.9021,0.03056,0.00273,0.02735,9.14613,2.55674,0.22836,2.28761
0.36521,855.49,67.62852,670.48,0.03466,0.00274,0.02717,9.1815,2.9222,0.23101,2.29024
0.36662,688.59,67.27423,666.1035,0.0279,0.00273,0.02699,9.21685,2.37024,0.23157,2.29284
0.36802,692.89,67.00245,661.768,0.02808,0.00271,0.02681,9.25222,2.40338,0.23241,2.29543
0.36943,644.58,67.29202,657.475,0.02612,0.00273,0.02664,9.28759,2.25294,0.2352,2.29801
0.37084,661.44,67.10565,653.224,0.0268,0.00272,0.02647,9.32296,2.32951,0.23634,2.30058
0.37224,792.62,67.10445,649.014,0.03212,0.00272,0.0263,9.35833,2.81274,0.23813,2.30313
0.37365,851.42,67.61645,644.845,0.0345,0.00274,0.02613,9.3937,3.04428,0.24176,2.30566
0.37506,598.22,67.257,640.717,0.02424,0.00273,0.02596,9.42907,2.15509,0.24229,2.30819
0.37646,644.9,67.4061,636.631,0.02613,0.00273,0.0258,9.46442,2.34071,0.24466,2.3107
0.37787,790.24,69.64225,632.582,0.03202,0.00282,0.02563,9.49979,2.88971,0.25466,2.31319
0.37928,572.12,70.61706,628.572,0.02318,0.00286,0.02547,9.53516,2.10771,0.26016,2.31568
0.38068,747.29,71.40114,624.6,0.03028,0.00289,0.02531,9.57053,2.7735,0.265,2.31815
0.38209,608.94,72.43924,620.666,0.02467,0.00294,0.02515,9.6059,2.27676,0.27084,2.3206
0.3835,707.71,73.50309,616.769,0.02868,0.00298,0.02499,9.64127,2.66558,0.27685,2.32305
0.3849,643.36,71.18393,612.911,0.02607,0.00288,0.02484,9.67662,2.441,0.27008,2.32548
0.38631,516.41,70.50728,609.087,0.02092,0.00286,0.02468,9.71199,1.97369,0.26947,2.32789
0.38772,601.57,69.97696,605.3,0.02438,0.00284,0.02453,9.74736,2.31594,0.2694,2.3303
0.38912,759.11,69.46993,601.547,0.03076,0.00281,0.02437,9.78273,2.94369,0.26939,2.33269
0.39053,575.9,69.22922,597.829,0.02334,0.00281,0.02422,9.8181,2.24941,0.2704,2.33507
0.39194,843.61,69.34244,594.146,0.03418,0.00281,0.02407,9.85347,3.31885,0.2728,2.33743
0.39335,663.53,69.1547,590.497,0.02689,0.0028,0.02393,9.88884,2.62917,0.27402,2.33978
0.39475,664.09,68.58027,586.884,0.02691,0.00278,0.02378,9.92419,2.65023,0.27369,2.34212
0.39616,656.47,68.46098,583.301,0.0266,0.00277,0.02364,9.95956,2.63853,0.27516,2.34444
0.39757,662.77,68.49553,579.751,0.02686,0.00278,0.02349,9.99493,2.68281,0.27726,2.34675
0.39897,676.22,68.27667,576.232,0.0274,0.00277,0.02335,10.0303,2.75666,0.27833,2.34905
0.40038,570.41,68.49784,572.746,0.02311,0.00278,0.02321,10.06567,2.34174,0.28121,2.35133
0.40179,550.49,68.40217,569.291,0.02231,0.00277,0.02307,10.10104,2.27588,0.28279,2.3536
0.40319,631.61,68.66087,565.8667,0.02559,0.00278,0.02293,10.13641,2.62957,0.28585,2.35586
0.4046,608.52,68.56258,562.476,0.02466,0.00278,0.02279,10.17176,2.55114,0.28744,2.3581
0.40601,716.56,69.18803,559.114,0.02903,0.0028,0.02266,10.20713,3.02501,0.29208,2.36034
0.40741,588.8,68.51324,555.782,0.02386,0.00278,0.02252,10.2425,2.50292,0.29124,2.36256
0.40882,702.85,68.51759,552.481,0.02848,0.00278,0.02239,10.27787,3.0084,0.29328,2.36478
0.41023,626.11,68.70988,549.209,0.02537,0.00278,0.02225,10.31324,2.69841,0.29613,2.36698
0.41163,581.61,68.79642,545.968,0.02357,0.00279,0.02212,10.34861,2.52385,0.29854,2.36918
0.41304,679.01,68.99098,542.755,0.02751,0.0028,0.02199,10.38398,2.96668,0.30143,2.37137
0.41445,586.74,68.74397,539.575,0.02377,0.00279,0.02186,10.41933,2.58102,0.3024,2.37355
0.41585,595.58,68.17625,536.4205,0.02413,0.00276,0.02174,10.4547,2.63773,0.30194,2.37572
0.41726,639.24,68.16855,533.295,0.0259,0.00276,0.02161,10.49007,2.85028,0.30395,2.37789
0.41867,626.28,68.24639,530.199,0.02538,0.00277,0.02148,10.52544,2.81136,0.30636,2.38005
0.42007,749.22,68.40718,527.13,0.03036,0.00277,0.02136,10.56081,3.38587,0.30915,2.3822
0.42148,620.05,67.95583,524.0892,0.02512,0.00275,0.02124,10.59618,2.82093,0.30917,2.38435
0.42289,691.81,68.05881,521.078,0.02803,0.00276,0.02111,10.63153,3.16844,0.3117,2.3865
0.42429,552.64,68.12209,518.092,0.02239,0.00276,0.02099,10.6669,2.54792,0.31407,2.38863
0.4257,709.03,68.20166,515.132,0.02873,0.00276,0.02087,10.70227,3.29066,0.31653,2.39077
0.42711,551.66,68.34891,512.199,0.02235,0.00277,0.02075,10.73764,2.57725,0.31931,2.39289
0.42851,592.67,68.56118,509.291,0.02401,0.00278,0.02064,10.77301,2.78711,0.32242,2.39501
0.42992,694.38,68.69895,506.409,0.02814,0.00278,0.02052,10.80838,3.28689,0.32519,2.39712
0.43133,563.24,68.66981,503.552,0.02282,0.00278,0.0204,10.84375,2.68361,0.32718,2.39922
0.43273,573.95,68.74886,500.722,0.02326,0.00279,0.02029,10.8791,2.7525,0.3297,2.40132
0.43414,609.61,68.63764,497.914,0.0247,0.00278,0.02018,10.91447,2.94255,0.33131,2.4034
0.43555,537.95,68.54967,495.13,0.0218,0.00278,0.02006,10.94984,2.61351,0.33303,2.40548
0.43696,729.93,70.67587,492.37,0.02958,0.00286,0.01995,10.98521,3.56915,0.34558,2.40755
0.43836,527.89,72.5119,489.633,0.02139,0.00294,0.01984,11.02058,2.59788,0.35685,2.40961
0.43977,556.61,74.42999,486.919,0.02255,0.00302,0.01973,11.05595,2.75683,0.36864,2.41166
0.44118,502.82,75.61392,484.228,0.02037,0.00306,0.01962,11.09132,2.50637,0.37691,2.4137
0.44258,654.13,76.84746,481.5608,0.02651,0.00311,0.01951,11.12667,3.28141,0.3855,2.41573
0.44399,503.78,74.351,478.914,0.02041,0.00301,0.01941,11.16204,2.54328,0.37535,2.41775
0.4454,505.54,73.24769,476.2883,0.02048,0.00297,0.0193,11.19741,2.56837,0.37213,2.41976
0.4468,696.33,72.78931,473.684,0.02822,0.00295,0.01919,11.23278,3.56005,0.37214,2.42176
0.44821,592.1,72.3466,471.1017,0.02399,0.00293,0.01909,11.26815,3.04626,0.37221,2.42374
0.44962,512.38,71.97995,468.54,0.02076,0.00292,0.01899,11.30352,2.65269,0.37265,2.42572
0.45102,499.55,71.79735,465.9983,0.02024,0.00291,0.01888,11.33889,2.60248,0.37404,2.42768
0.45243,529.57,71.48071,463.479,0.02146,0.0029,0.01878,11.37424,2.7761,0.37471,2.42964
0.45384,455.21,70.93374,460.978,0.01844,0.00287,0.01868,11.40961,2.40115,0.37416,2.43158
0.45524,811.47,71.29465,458.4962,0.03288,0.00289,0.01858,11.44498,4.30694,0.3784,2.43351
0.45665,705.98,70.96121,456.0341,0.02861,0.00288,0.01848,11.48035,3.77024,0.37896,2.43542
0.45806,621.03,70.71414,453.591,0.02516,0.00287,0.01838,11.51572,3.33704,0.37998,2.43732
0.45946,517.06,70.96023,451.167,0.02095,0.00288,0.01828,11.55109,2.79546,0.38364,2.43921
0.46087,487.09,71.07089,448.763,0.01974,0.00288,0.01818,11.58644,2.64957,0.3866,2.44109
0.46228,540.02,70.52354,446.376,0.02188,0.00286,0.01809,11.62181,2.95545,0.38597,2.44295
0.46368,630.08,70.63487,444.007,0.02553,0.00286,0.01799,11.65718,3.46936,0.38893,2.4448
0.46509,546.57,70.22534,441.656,0.02215,0.00285,0.0179,11.69255,3.02783,0.38903,2.44664
0.4665,652.08,70.2807,439.3232,0.02642,0.00285,0.0178,11.72792,3.63421,0.39169,2.44846
0.4679,610.67,70.27859,437.008,0.02474,0.00285,0.01771,11.76329,3.42398,0.39405,2.45027
0.46931,580.61,70.15899,434.71,0.02353,0.00284,0.01761,11.79866,3.27504,0.39575,2.45207
0.47072,371.59,70.19115,432.432,0.01506,0.00284,0.01752,11.834,2.1086,0.3983,2.45385
0.47212,530.16,70.31667,430.1689,0.02148,0.00285,0.01743,11.86937,3.02642,0.4014,2.45562
0.47353,503.05,70.31539,427.923,0.02038,0.00285,0.01734,11.90474,2.8888,0.40379,2.45738
0.47494,587.64,70.48247,425.6936,0.02381,0.00286,0.01725,11.94012,3.39465,0.40716,2.45913
0.47635,501.76,70.34473,423.481,0.02033,0.00285,0.01716,11.97549,2.91574,0.40878,2.46086
0.47775,400.43,70.20395,421.285,0.01623,0.00284,0.01707,12.01086,2.34068,0.41037,2.46258
0.47916,408.3,70.38054,419.105,0.01654,0.00285,0.01698,12.04623,2.40076,0.41383,2.46429
0.48057,535.22,70.65898,416.944,0.02169,0.00286,0.01689,12.08157,3.16553,0.41791,2.46599
0.48197,564.85,70.90983,414.798,0.02289,0.00287,0.01681,12.11694,3.36036,0.42185,2.46768
0.48338,617.73,70.62792,412.669,0.02503,0.00286,0.01672,12.15231,3.69644,0.42263,2.46937
0.48479,477.66,70.09513,410.558,0.01935,0.00284,0.01664,12.18769,2.87494,0.42189,2.47106
0.48619,424.67,70.36314,408.465,0.01721,0.00285,0.01655,12.22306,2.57086,0.42596,2.47276
0.4876,488.02,70.36524,406.3899,0.01977,0.00285,0.01647,12.25843,2.97149,0.42844,2.47445
0.48901,467.01,70.20066,404.333,0.01892,0.00284,0.01638,12.2938,2.85999,0.42991,2.47616
0.49041,514.28,70.31024,402.297,0.02084,0.00285,0.0163,12.32914,3.16761,0.43306,2.47788
0.49182,411.46,70.02385,400.278,0.01667,0.00284,0.01622,12.36451,2.54888,0.43378,2.47961
0.49323,481.22,70.24415,398.2789,0.0195,0.00285,0.01614,12.39988,2.9981,0.43764,2.48136
0.49463,458.41,70.41598,396.299,0.01857,0.00285,0.01606,12.43526,2.8723,0.44121,2.48313
0.49604,468.14,69.98417,394.339,0.01897,0.00284,0.01598,12.47063,2.94998,0.441,2.48493
0.49745,418.21,73.79195,392.4,0.01695,0.00299,0.0159,12.506,2.65032,0.46764,2.48675
0.49885,599.64,75.31971,390.482,0.0243,0.00305,0.01582,12.54134,3.8216,0.48002,2.48861
0.50026,476.68,76.76641,388.584,0.01931,0.00311,0.01575,12.57671,3.05512,0.49201,2.49049
0.50167,459.18,78.15499,386.706,0.01861,0.00317,0.01567,12.61208,2.95953,0.50373,2.49242
0.50307,561.52,78.22506,384.848,0.02275,0.00317,0.01559,12.64745,3.63947,0.50701,2.49438
0.50448,481.83,75.15932,383.011,0.01952,0.00305,0.01552,12.68283,3.14046,0.48987,2.49638
0.50589,569.17,74.45686,381.195,0.02306,0.00302,0.01545,12.7182,3.73044,0.488,2.49842
0.50729,583.88,73.88256,379.399,0.02366,0.00299,0.01537,12.75357,3.84817,0.48694,2.5005
0.5087,541.36,73.15297,377.626,0.02194,0.00296,0.0153,12.78891,3.58773,0.4848,2.50262
0.51011,581.76,73.36189,375.871,0.02357,0.00297,0.01523,12.82428,3.87683,0.48888,2.50479
0.51151,470.13,73.23895,374.137,0.01905,0.00297,0.01516,12.85965,3.15024,0.49076,2.50701
0.51292,452.24,73.17073,372.424,0.01832,0.00296,0.01509,12.89502,3.04705,0.493,2.50928
0.51433,317.04,72.99462,370.732,0.01285,0.00296,0.01502,12.9304,2.14785,0.49452,2.5116
0.51574,514.96,73.13604,369.06,0.02087,0.00296,0.01495,12.96577,3.50781,0.49819,2.51397
0.51714,433.44,72.72537,367.4095,0.01756,0.00295,0.01489,13.00114,2.96865,0.4981,2.5164
0.51855,414.12,72.95765,365.781,0.01678,0.00296,0.01482,13.03648,2.85177,0.50241,2.51888
0.51996,470.5,72.64576,364.171,0.01906,0.00294,0.01476,13.07185,3.25762,0.50298,2.52143
0.52136,356.67,72.4585,362.583,0.01445,0.00294,0.01469,13.10722,2.48287,0.5044,2.52404
0.52277,389.26,72.45103,361.016,0.01577,0.00294,0.01463,13.14259,2.72439,0.50708,2.52671
0.52418,548.31,72.38309,359.4692,0.02222,0.00293,0.01457,13.17797,3.85824,0.50933,2.52944
0.52558,544.24,72.30122,357.944,0.02205,0.00293,0.0145,13.21334,3.85019,0.51149,2.53225
0.52699,548.01,72.39976,356.44,0.02221,0.00293,0.01444,13.24871,3.89764,0.51493,2.53513
0.5284,435.81,72.33918,354.959,0.01766,0.00293,0.01438,13.28405,3.1162,0.51725,2.53809
0.5298,470.94,71.98638,353.498,0.01908,0.00292,0.01432,13.31942,3.38535,0.51747,2.54112
0.53121,313.24,71.58615,352.059,0.01269,0.0029,0.01427,13.35479,2.2637,0.51733,2.54423
0.53262,464.62,71.47227,350.641,0.01883,0.0029,0.01421,13.39016,3.37549,0.51925,2.54742
0.53402,493.86,71.77737,349.245,0.02001,0.00291,0.01415,13.42553,3.6069,0.52422,2.55071
0.53543,476.23,71.61366,347.871,0.0193,0.0029,0.0141,13.4609,3.49649,0.52579,2.55407
0.53684,357.23,71.70396,346.5196,0.01447,0.00291,0.01404,13.49625,2.63658,0.52922,2.55753
0.53824,550.87,72.17667,345.189,0.02232,0.00292,0.01399,13.53162,4.0871,0.5355,2.56108
0.53965,482.69,71.81339,343.881,0.01956,0.00291,0.01393,13.56699,3.6,0.5356,2.56473
0.54106,456.49,72.13538,342.596,0.0185,0.00292,0.01388,13.60236,3.42237,0.54081,2.56849
0.54246,409.4,71.73625,341.333,0.01659,0.00291,0.01383,13.63773,3.08531,0.54062,2.57235
0.54387,435.44,71.62772,340.093,0.01764,0.0029,0.01378,13.6731,3.2986,0.5426,2.57632
0.54528,490.78,71.58277,338.877,0.01989,0.0029,0.01373,13.70847,3.73708,0.54507,2.5804
0.54668,427.26,71.70452,337.685,0.01731,0.00291,0.01368,13.74382,3.2702,0.54882,2.5846
0.54809,381.56,71.15117,336.516,0.01546,0.00288,0.01364,13.77919,2.93547,0.54739,2.58893
0.5495,375.93,71.00971,335.372,0.01523,0.00288,0.01359,13.81456,2.90702,0.54911,2.59339
0.5509,543.33,71.23145,334.251,0.02202,0.00289,0.01354,13.84993,4.22305,0.55365,2.59798
0.55231,417.13,71.14577,333.156,0.0169,0.00288,0.0135,13.8853,3.25873,0.55581,2.6027
0.55372,293.86,71.13349,332.085,0.01191,0.00288,0.01346,13.92067,2.30743,0.55855,2.60757
0.55513,349.83,71.27854,331.0396,0.01418,0.00289,0.01341,13.95604,2.76089,0.56254,2.61259
0.55653,469.11,74.61422,330.02,0.01901,0.00302,0.01337,13.99139,3.72103,0.59185,2.61776
0.55794,484.81,76.87993,329.026,0.01964,0.00312,0.01333,14.02676,3.86503,0.61291,2.62308
0.55935,471.89,78.89752,328.058,0.01912,0.0032,0.01329,14.06213,3.78103,0.63217,2.62857
0.56075,386.85,80.37132,327.116,0.01568,0.00326,0.01325,14.0975,3.11526,0.64722,2.63423
0.56216,289.41,82.09889,326.201,0.01173,0.00333,0.01322,14.13287,2.34229,0.66445,2.64006
0.56357,370.76,78.07846,325.313,0.01502,0.00316,0.01318,14.16824,3.01572,0.63508,2.64606
0.56497,423.58,76.96195,324.451,0.01716,0.00312,0.01315,14.20361,3.46258,0.62913,2.65225
0.56638,333.71,76.00789,323.618,0.01352,0.00308,0.01311,14.23896,2.74153,0.62443,2.65861
0.56779,468.88,75.91242,322.811,0.019,0.00308,0.01308,14.27433,3.87115,0.62675,2.66518
0.56919,429.31,75.58079,322.032,0.0174,0.00306,0.01305,14.3097,3.56204,0.6271,2.67194
0.5706,472.36,75.1179,321.281,0.01914,0.00304,0.01302,14.34507,3.93863,0.62635,2.67891
0.57201,397.06,75.03253,320.558,0.01609,0.00304,0.01299,14.38044,3.32711,0.62873,2.68608
0.57341,520.36,74.73199,319.864,0.02108,0.00303,0.01296,14.41581,4.38176,0.62929,2.69346
0.57482,416.73,74.38935,319.2,0.01689,0.00301,0.01293,14.45116,3.52636,0.62948,2.70106
0.57623,334.65,74.07974,318.563,0.01356,0.003,0.01291,14.48653,2.84568,0.62993,2.70889
0.57763,407.14,74.22379,317.956,0.0165,0.00301,0.01288,14.5219,3.47902,0.63424,2.71695
0.57904,369.41,73.94054,317.379,0.01497,0.003,0.01286,14.55727,3.17202,0.63491,2.72524
0.58045,462.22,73.94772,316.831,0.01873,0.003,0.01284,14.59264,3.98826,0.63806,2.73377
0.58185,355.84,73.71475,316.312,0.01442,0.00299,0.01282,14.62801,3.08526,0.63913,2.74254
0.58326,511.34,73.64298,315.824,0.02072,0.00298,0.0128,14.66338,4.45497,0.6416,2.75157
0.58467,415.43,73.75309,315.3661,0.01683,0.00299,0.01278,14.69873,3.63684,0.64566,2.76084
0.58607,481.1,73.82317,314.938,0.01949,0.00299,0.01276,14.7341,4.23204,0.64939,2.77038
0.58748,439.48,73.21536,314.54,0.01781,0.00297,0.01275,14.76947,3.8845,0.64714,2.78018
0.58889,400.87,73.36493,314.173,0.01624,0.00297,0.01273,14.80484,3.56023,0.65157,2.79025
0.59029,440.64,73.37793,313.836,0.01785,0.00297,0.01272,14.84021,3.93216,0.65481,2.80059
0.5917,454.76,73.43156,313.53,0.01843,0.00298,0.0127,14.87558,4.07753,0.65841,2.81121
0.59311,446.3,73.35263,313.255,0.01808,0.00297,0.01269,14.91095,4.02073,0.66084,2.82212
0.59451,360.6,72.83482,313.011,0.01461,0.00295,0.01268,14.9463,3.26407,0.65928,2.8333
0.59592,378.4,72.77844,312.798,0.01533,0.00295,0.01267,14.98167,3.44142,0.6619,2.84479
0.59733,441.32,72.76282,312.616,0.01788,0.00295,0.01267,15.01704,4.03264,0.66488,2.85658
0.59874,444.47,72.58075,312.466,0.01801,0.00294,0.01266,15.05241,4.08057,0.66635,2.86867
0.60014,459.54,73.04162,312.347,0.01862,0.00296,0.01266,15.08778,4.23878,0.67373,2.88108
0.60155,394.55,72.87394,312.26,0.01599,0.00295,0.01265,15.12315,3.6564,0.67534,2.8938
0.60296,399.55,72.78497,312.205,0.01619,0.00295,0.01265,15.15852,3.72007,0.67768,2.90684
0.60436,333.51,72.66159,312.183,0.01351,0.00294,0.01265,15.19387,3.1197,0.67969,2.9202
0.60577,383.94,72.3527,312.193,0.01556,0.00293,0.01265,15.22924,3.60817,0.67995,2.9339
0.60718,417.21,72.56245,312.235,0.01691,0.00294,0.01265,15.26461,3.93906,0.68509,2.94795
0.60858,336.29,72.52349,312.31,0.01363,0.00294,0.01265,15.29998,3.18979,0.6879,2.96234
0.60999,364.06,72.73443,312.418,0.01475,0.00295,0.01266,15.33535,3.46918,0.6931,2.97708
0.6114,374.59,72.77945,312.559,0.01518,0.00295,0.01266,15.37072,3.58601,0.69673,2.99218
0.6128,354.5,72.59764,312.734,0.01436,0.00294,0.01267,15.40607,3.40931,0.69819,3.00764
0.61421,371.76,72.80629,312.942,0.01506,0.00295,0.01268,15.44144,3.59174,0.70341,3.02347
0.61562,402.75,74.62208,313.183,0.01632,0.00302,0.01269,15.47681,3.90899,0.72426,3.03968
0.61702,378.38,77.9802,313.459,0.01533,0.00316,0.0127,15.51218,3.68927,0.76032,3.05628
0.61843,485.17,80.13969,313.768,0.01966,0.00325,0.01271,15.54755,4.75209,0.78494,3.07326
0.61984,393.04,82.12651,314.112,0.01593,0.00333,0.01273,15.58292,3.86724,0.80807,3.09065
0.62124,467.06,83.61763,314.491,0.01893,0.00339,0.01274,15.61829,4.61643,0.82648,3.10843
0.62265,298.29,80.86715,314.904,0.01209,0.00328,0.01276,15.65364,2.96167,0.80291,3.12662
0.62406,345.36,78.63702,315.352,0.01399,0.00319,0.01278,15.68901,3.44453,0.7843,3.14524
0.62546,259.64,77.35388,315.836,0.01052,0.00313,0.0128,15.72438,2.60127,0.77499,3.16429
0.62687,401.96,77.27281,316.356,0.01629,0.00313,0.01282,15.75975,4.04528,0.77766,3.18377
0.62828,341.26,76.58561,316.912,0.01383,0.0031,0.01284,15.79512,3.44983,0.77421,3.20369
0.62968,419.89,76.91277,317.5037,0.01701,0.00312,0.01287,15.83049,4.26374,0.78101,3.22407
0.63109,384.9,76.61506,318.132,0.0156,0.0031,0.01289,15.86586,3.92592,0.78146,3.2449
0.6325,371.83,76.28377,318.797,0.01507,0.00309,0.01292,15.9012,3.80953,0.78155,3.26619
0.6339,214.72,75.85638,319.5,0.0087,0.00307,0.01295,15.93658,2.20968,0.78064,3.28797
0.63531,518.64,76.20062,320.24,0.02102,0.00309,0.01298,15.97195,5.36103,0.78766,3.31022
0.63672,384.53,75.72824,321.0171,0.01558,0.00307,0.01301,16.00732,3.9924,0.78625,3.33297
0.63813,345.29,75.92724,321.833,0.01399,0.00308,0.01304,16.04269,3.60085,0.79181,3.35623
0.63953,511.81,76.12432,322.686,0.02074,0.00308,0.01308,16.07806,5.36096,0.79737,3.37998
0.64094,287.55,75.69836,323.578,0.01165,0.00307,0.01311,16.1134,3.0252,0.79639,3.40424
0.64234,343.46,75.73964,324.5093,0.01392,0.00307,0.01315,16.14878,3.62929,0.80033,3.42904
0.64375,359.74,74.93479,325.48,0.01458,0.00304,0.01319,16.18415,3.81799,0.7953,3.45438
0.64516,343.21,74.68986,326.489,0.01391,0.00303,0.01323,16.21951,3.6585,0.79617,3.48026
0.64657,329.84,74.55993,327.539,0.01337,0.00302,0.01327,16.25488,3.53133,0.79825,3.50669
0.64797,315.9,74.59772,328.629,0.0128,0.00302,0.01332,16.29026,3.39682,0.80214,3.53369
0.64938,475.63,74.56301,329.7589,0.01927,0.00302,0.01336,16.32563,5.1366,0.80525,3.56126
0.65079,253.77,74.66308,330.929,0.01028,0.00303,0.01341,16.36097,2.75249,0.80982,3.58938
0.65219,398.65,74.61193,332.141,0.01615,0.00302,0.01346,16.39634,4.34263,0.81277,3.61812
0.6536,309.77,74.62308,333.3938,0.01255,0.00302,0.01351,16.43171,3.389,0.81641,3.64746
0.65501,399.47,74.90739,334.689,0.01619,0.00304,0.01356,16.46708,4.38919,0.82305,3.6774
0.65641,370.4,74.8554,336.025,0.01501,0.00303,0.01362,16.50245,4.08728,0.82601,3.70797
0.65782,244.58,74.29549,337.404,0.00991,0.00301,0.01367,16.53783,2.71047,0.82335,3.73916
0.65923,400.62,74.60098,338.826,0.01623,0.00302,0.01373,16.5732,4.45874,0.83028,3.77099
0.66063,442.8,74.39476,340.289,0.01794,0.00301,0.01379,16.60854,4.94923,0.83152,3.80345
0.66204,343.33,74.43856,341.797,0.01391,0.00302,0.01385,16.64391,3.8538,0.83556,3.83659
0.66345,433.44,74.43788,343.348,0.01756,0.00302,0.01391,16.67928,4.88597,0.8391,3.8704
0.66485,377.02,74.28296,344.943,0.01528,0.00301,0.01398,16.71465,4.26802,0.84091,3.90489
0.66626,300.55,74.52652,346.583,0.01218,0.00302,0.01404,16.75002,3.41676,0.84724,3.94008
0.66767,172.79,74.59391,348.267,0.007,0.00302,0.01411,16.7854,1.97264,0.8516,3.97597
0.66907,379.13,74.45746,349.997,0.01536,0.00302,0.01418,16.82077,4.34657,0.85362,4.01257
0.67048,421.9,74.35401,351.77,0.0171,0.00301,0.01425,16.85611,4.85726,0.85602,4.04986
0.67189,382.99,74.06763,353.59,0.01552,0.003,0.01433,16.89148,4.42782,0.85631,4.08792
0.67329,321.03,73.96051,355.457,0.01301,0.003,0.0144,16.92685,3.72705,0.85866,4.12673
0.6747,337.05,73.94728,357.37,0.01366,0.003,0.01448,16.96222,3.9294,0.86209,4.1663
0.67611,285.89,78.01067,359.33,0.01158,0.00316,0.01456,16.99759,3.34688,0.91326,4.20663
0.67752,266.87,80.84322,361.337,0.01081,0.00328,0.01464,17.03297,3.13724,0.95037,4.24775
0.67892,360.09,83.57183,363.389,0.01459,0.00339,0.01472,17.06831,4.25069,0.98652,4.28963
0.68033,238.4,84.96199,365.491,0.00966,0.00344,0.01481,17.10368,2.82587,1.0071,4.33234
0.68173,397.27,87.38737,367.641,0.0161,0.00354,0.0149,17.13905,4.72853,1.04013,4.37587
0.68314,316.46,88.72473,369.838,0.01282,0.0036,0.01499,17.17442,3.78225,1.06041,4.42021
0.68455,326.62,90.68628,372.084,0.01323,0.00367,0.01508,17.20979,3.91977,1.08833,4.46539
0.68596,508.42,93.11305,374.379,0.0206,0.00377,0.01517,17.24516,6.12666,1.12205,4.51141
0.68736,217.13,94.85147,376.722,0.0088,0.00384,0.01526,17.28054,2.62725,1.14769,4.55829
0.68877,385.74,97.15467,379.112,0.01563,0.00394,0.01536,17.31588,4.68652,1.18037,4.606
0.69018,165.31,97.90767,381.553,0.0067,0.00397,0.01546,17.35125,2.01664,1.19439,4.65461
0.69158,154.72,99.56879,384.044,0.00627,0.00403,0.01556,17.38662,1.89515,1.21961,4.70411
0.69299,379.18,101.4891,386.584,0.01536,0.00411,0.01566,17.42199,4.66346,1.24819,4.75452
0.6944,459.36,104.1032,389.1738,0.01861,0.00422,0.01577,17.45736,5.67254,1.28555,4.80582
0.6958,292.82,106.0972,391.814,0.01186,0.0043,0.01588,17.49273,3.63064,1.31549,4.85805
0.69721,347.02,108.6097,394.504,0.01406,0.0044,0.01599,17.52811,4.32008,1.35209,4.91121
0.69862,251.5,110.2202,397.243,0.01019,0.00447,0.0161,17.56345,3.14358,1.37768,4.96527
0.70002,513.68,111.9711,400.035,0.02081,0.00454,0.01621,17.59882,6.44654,1.40521,5.02032
0.70143,367.1,115.343,402.877,0.01487,0.00467,0.01632,17.63419,4.62554,1.45335,5.07634
0.70284,379.59,117.6618,405.772,0.01538,0.00477,0.01644,17.66956,4.80212,1.48852,5.13334
0.70424,242.42,120.3676,408.718,0.00982,0.00488,0.01656,17.70493,3.0791,1.52885,5.19133
0.70565,155.99,124.1911,411.716,0.00632,0.00503,0.01668,17.7403,1.98923,1.58372,5.25033
0.70706,297.49,127.1375,414.767,0.01205,0.00515,0.01681,17.77567,3.80883,1.62777,5.31035
0.70846,274.37,132.1658,417.868,0.01112,0.00536,0.01693,17.81102,3.5268,1.69888,5.37135
0.70987,279.09,136.6755,421.024,0.01131,0.00554,0.01706,17.84639,3.60174,1.76384,5.43343
0.71128,333.63,143.3097,424.233,0.01352,0.00581,0.01719,17.88176,4.32267,1.85679,5.49658
0.71268,277.44,149.0908,427.4962,0.01124,0.00604,0.01732,17.91713,3.60888,1.93934,5.56078
0.71409,334.91,151.9008,430.813,0.01357,0.00615,0.01746,17.9525,4.37366,1.9837,5.62608
0.7155,263.05,153.1623,434.184,0.01066,0.00621,0.01759,17.98787,3.44877,2.00807,5.69246
0.7169,256.09,160.893,437.6074,0.01038,0.00652,0.01773,18.02322,3.37073,2.11772,5.75992
0.71831,380.57,170.0257,441.088,0.01542,0.00689,0.01787,18.05859,5.02885,2.24672,5.82853
0.71972,485.71,180.5932,444.623,0.01968,0.00732,0.01802,18.09396,6.44334,2.39572,5.89829
0.72112,275.87,194.6044,448.213,0.01118,0.00789,0.01816,18.12933,3.67396,2.59169,5.96919
0.72253,217.31,197.2363,451.86,0.00881,0.00799,0.01831,18.1647,2.90538,2.637,6.04125
0.72394,415.56,207.7693,455.562,0.01684,0.00842,0.01846,18.20007,5.57759,2.78865,6.11449
0.72535,711.25,218.0508,459.32,0.02882,0.00884,0.01861,18.23544,9.58345,2.93804,6.18891
0.72675,229.78,228.2508,463.131,0.00931,0.00925,0.01877,18.27079,3.10809,3.08741,6.26449
0.72816,46.35,245.6166,467.002,0.00188,0.00995,0.01892,18.30616,0.62938,3.33518,6.34132
0.72957,288.53,249.8847,470.929,0.01169,0.01013,0.01908,18.34153,3.93304,3.40626,6.41939
0.73097,280.34,263.5423,474.914,0.01136,0.01068,0.01924,18.3769,3.83616,3.6063,6.4987
0.73238,340.31,284.3892,478.956,0.01379,0.01152,0.01941,18.41227,4.67473,3.90656,6.57926
0.73379,273.26,311.233,483.055,0.01107,0.01261,0.01957,18.44764,3.76812,4.29175,6.66109
0.73519,-291.85,342.4288,487.212,-0.01183,0.01388,0.01974,18.48301,-4.03991,4.74005,6.7442
0.7366,-8.25,395.6006,491.425,-0.00033,0.01603,0.01991,18.51836,-0.11464,5.49704,6.82855
0.73801,26.31,476.8807,495.698,0.00107,0.01932,0.02009,18.55373,0.36699,6.6518,6.91427
0.73941,1210.09,626.8336,500.03,0.04903,0.0254,0.02026,18.5891,16.94342,8.77679,7.00131
0.74054,1712.8,1043.328,503.537,0.0694,0.04228,0.0204,18.61739,24.05531,14.65295,7.07189