File: 2025/starling_2025/figures/experimental_comparison/saxs_scattering/experiment/n_fatz1/mff_out.csv
#File Plotted Below: n_fatz1_clean.dat,,,,,,,,,,
,,,,,,,,,,
    #Fit from 0.01-0.15 with polymer MFF,,,,,,,,,,
#Initial search parameter for I0 = 0.00789763,,,,,,,,,,
#Initial search parameter for Rg = 30,,,,,,,,,,
#Initial search parameter for nu = 0.499881,,,,,,,,,,
#BestFit for I0 = 0.00831 +- 0.00001,,,,,,,,,,
#BestFit for I(0)/I0 = 1.00000 +- 0.00151,,,,,,,,,,
#BestFit for Rg = 36.45000 +- 0.05514,,,,,,,,,,
#BestFit for nu = 0.51939 +- 0.00164,,,,,,,,,,
#BestFit reduced chisquared = 0.90214,,,,,,,,,,
#-------------,,,,,,,,,,
#-------------,,,,,,,,,,
,,,,,,,,,,
    #q,I(q),Error,fit,I(q)/I0,Error/I0,fit/I0,qRg,((qRg)^2)I(q)/I0,((qRg)^2)*Error/I0,((qRg)^2)*fit/I0
0.00768,0.00803,0.00019,0.00809,0.96643,0.02266,0.97425,0.27996,0.07575,0.00178,0.07636
0.00851,0.00814,0.00016,0.00804,0.98021,0.01894,0.96817,0.31024,0.09434,0.00182,0.09318
0.00934,0.00811,0.00014,0.00799,0.97623,0.01665,0.96155,0.34051,0.11319,0.00193,0.11149
0.01017,0.00787,0.00012,0.00793,0.94808,0.01481,0.95439,0.37079,0.13035,0.00204,0.13122
0.011,0.00795,0.00011,0.00786,0.95664,0.01348,0.94672,0.40107,0.15388,0.00217,0.15228
0.01183,0.00796,0.0001,0.0078,0.95814,0.01228,0.93857,0.43135,0.17827,0.00228,0.17463
0.01266,0.0077,0.0001,0.00772,0.92739,0.01148,0.92995,0.46162,0.19762,0.00245,0.19817
0.0135,0.00758,0.00009,0.00765,0.91291,0.01082,0.9209,0.4919,0.22089,0.00262,0.22283
0.01433,0.00753,0.00009,0.00757,0.9068,0.01025,0.91143,0.52218,0.24726,0.00279,0.24852
0.01516,0.00746,0.00008,0.00749,0.89787,0.00988,0.90157,0.55245,0.27404,0.00302,0.27516
0.01599,0.0074,0.00008,0.0074,0.89125,0.00948,0.89134,0.58273,0.30265,0.00322,0.30268
0.01682,0.00719,0.00007,0.00732,0.86529,0.00903,0.88076,0.61301,0.32516,0.00339,0.33097
0.01765,0.00711,0.00007,0.00722,0.85555,0.00872,0.86986,0.64329,0.35404,0.00361,0.35997
0.01848,0.00718,0.00007,0.00713,0.86417,0.00846,0.85866,0.67356,0.39206,0.00384,0.38956
0.01931,0.00705,0.00007,0.00704,0.84873,0.00862,0.84719,0.70384,0.42046,0.00427,0.41969
0.02014,0.00698,0.00007,0.00694,0.84068,0.00855,0.83546,0.73412,0.45307,0.00461,0.45025
0.02097,0.00682,0.00007,0.00684,0.82115,0.00834,0.8235,0.7644,0.4798,0.00487,0.48117
0.0218,0.0068,0.00007,0.00674,0.81906,0.00835,0.81134,0.79467,0.51724,0.00527,0.51236
0.02263,0.00659,0.00007,0.00664,0.79336,0.00824,0.79899,0.82495,0.53991,0.00561,0.54375
0.02346,0.00642,0.00007,0.00653,0.77324,0.00811,0.78648,0.85523,0.56556,0.00594,0.57524
0.02429,0.00637,0.00007,0.00643,0.76646,0.00796,0.77383,0.88551,0.60099,0.00624,0.60678
0.02512,0.0063,0.00007,0.00632,0.75859,0.00792,0.76107,0.91578,0.6362,0.00664,0.63828
0.02596,0.0062,0.00006,0.00621,0.74671,0.00744,0.74822,0.94606,0.66833,0.00666,0.66968
0.02679,0.0061,0.00006,0.00611,0.73483,0.00718,0.7353,0.97634,0.70047,0.00685,0.70091
0.02762,0.00608,0.00006,0.006,0.73212,0.00703,0.72234,1.00661,0.74184,0.00713,0.73193
0.02845,0.00599,0.00006,0.00589,0.72112,0.00686,0.70936,1.03689,0.7753,0.00737,0.76266
0.02928,0.00572,0.00006,0.00578,0.68919,0.00662,0.69636,1.06717,0.78488,0.00754,0.79305
0.03011,0.00555,0.00005,0.00568,0.66766,0.00649,0.68337,1.09744,0.80412,0.00782,0.82304
0.03094,0.00563,0.00005,0.00557,0.67738,0.00637,0.6704,1.12772,0.86147,0.00811,0.85259
0.03177,0.00547,0.00005,0.00546,0.65894,0.00625,0.65747,1.158,0.88361,0.00839,0.88164
0.0326,0.00542,0.00005,0.00535,0.65225,0.00616,0.64458,1.18828,0.92098,0.00869,0.91014
0.03343,0.00518,0.00005,0.00525,0.62349,0.00605,0.63175,1.21855,0.9258,0.00899,0.93806
0.03426,0.00515,0.00005,0.00514,0.61959,0.00599,0.61899,1.24883,0.9663,0.00934,0.96537
0.03509,0.00512,0.00005,0.00504,0.6162,0.00606,0.60633,1.27911,1.00817,0.00992,0.99203
0.03592,0.00496,0.00005,0.00493,0.59727,0.00609,0.59377,1.30939,1.02401,0.01045,1.01801
0.03675,0.00488,0.00005,0.00483,0.58708,0.0061,0.58132,1.33967,1.05363,0.01095,1.0433
0.03758,0.0047,0.00005,0.00473,0.56597,0.00603,0.56901,1.36994,1.06218,0.01131,1.06788
0.03841,0.00464,0.00005,0.00462,0.55901,0.00604,0.55684,1.40022,1.096,0.01183,1.09175
0.03925,0.00453,0.00005,0.00453,0.54559,0.00597,0.54483,1.43049,1.11644,0.01221,1.1149
0.04008,0.00439,0.00005,0.00443,0.52818,0.00594,0.533,1.46077,1.12706,0.01267,1.13734
0.04091,0.00428,0.00005,0.00433,0.51547,0.00588,0.52135,1.49105,1.146,0.01307,1.15907
0.04174,0.00428,0.00005,0.00423,0.5149,0.00584,0.5099,1.52133,1.19171,0.01352,1.18013
0.04257,0.00419,0.00005,0.00414,0.50509,0.00584,0.49865,1.5516,1.21599,0.01406,1.2005
0.0434,0.00406,0.00005,0.00405,0.48867,0.00587,0.48761,1.58188,1.22283,0.0147,1.22018
0.04423,0.0039,0.00005,0.00396,0.47,0.00597,0.47678,1.61216,1.22156,0.01553,1.23918
0.04506,0.0039,0.00005,0.00387,0.46985,0.00601,0.46615,1.64244,1.26747,0.01622,1.25749
0.04589,0.00377,0.00005,0.00379,0.45401,0.00604,0.45573,1.67271,1.27031,0.01689,1.27511
0.04672,0.00372,0.00005,0.0037,0.4474,0.00611,0.44551,1.70299,1.29753,0.01773,1.29206
0.04755,0.00363,0.00005,0.00362,0.43684,0.00598,0.4355,1.73327,1.31235,0.01797,1.30832
0.04838,0.00354,0.00005,0.00354,0.42591,0.00579,0.42569,1.76355,1.32462,0.01802,1.32392
0.04921,0.00342,0.00005,0.00346,0.41231,0.00572,0.41608,1.79382,1.32672,0.01841,1.33886
0.05004,0.00338,0.00005,0.00338,0.40717,0.00564,0.40668,1.8241,1.35481,0.01875,1.35316
0.05087,0.00325,0.00005,0.0033,0.39098,0.00559,0.39748,1.85438,1.34447,0.01923,1.36683
0.05171,0.00317,0.00005,0.00323,0.38193,0.0056,0.38849,1.88465,1.3566,0.01988,1.37989
0.05254,0.00319,0.00005,0.00315,0.38431,0.00559,0.3797,1.91493,1.40926,0.02048,1.39235
0.05337,0.00309,0.00005,0.00308,0.37214,0.00556,0.37112,1.94521,1.40812,0.02104,1.40425
0.0542,0.003,0.00005,0.00301,0.36132,0.0055,0.36274,1.97548,1.41007,0.02146,1.4156
0.05503,0.00296,0.00005,0.00294,0.35638,0.00543,0.35456,2.00576,1.43373,0.02186,1.42643
0.05586,0.0028,0.00004,0.00288,0.33696,0.00541,0.34659,2.03604,1.39685,0.02241,1.43677
0.05669,0.00281,0.00004,0.00281,0.33797,0.00532,0.33881,2.06632,1.44303,0.0227,1.44662
0.05752,0.00274,0.00004,0.00275,0.32973,0.00528,0.33123,2.09659,1.44937,0.02319,1.45601
0.05835,0.00268,0.00004,0.00269,0.32226,0.00526,0.32385,2.12687,1.45778,0.02378,1.46494
0.05918,0.00267,0.00004,0.00263,0.32148,0.00525,0.31664,2.15715,1.49595,0.02442,1.47344
0.06001,0.0026,0.00004,0.00257,0.31362,0.00521,0.30963,2.18743,1.50062,0.02494,1.48152
0.06084,0.00251,0.00004,0.00251,0.30229,0.00516,0.30279,2.21771,1.48673,0.0254,1.48919
0.06167,0.00245,0.00004,0.00246,0.29559,0.00515,0.29613,2.24798,1.49373,0.026,1.49647
0.0625,0.0024,0.00004,0.00241,0.28849,0.00508,0.28964,2.27826,1.49741,0.02636,1.50336
0.06333,0.00234,0.00004,0.00235,0.28219,0.00509,0.28332,2.30854,1.50388,0.02712,1.5099
0.06417,0.00228,0.00004,0.0023,0.27426,0.00507,0.27716,2.33881,1.50019,0.02774,1.51608
0.065,0.00223,0.00004,0.00225,0.26793,0.00505,0.27116,2.36909,1.5038,0.02833,1.52193
0.06583,0.00223,0.00004,0.0022,0.26796,0.00499,0.26532,2.39937,1.54262,0.02874,1.52745
0.06666,0.00218,0.00004,0.00216,0.26245,0.00496,0.25963,2.42964,1.54927,0.02927,1.53266
0.06749,0.00207,0.00004,0.00211,0.24876,0.00494,0.25409,2.45992,1.50532,0.02992,1.53757
0.06832,0.00211,0.00004,0.00207,0.25399,0.00493,0.2487,2.4902,1.57499,0.03054,1.54219
0.06915,0.00205,0.00004,0.00202,0.24639,0.0049,0.24344,2.52048,1.56529,0.03114,1.54653
0.06998,0.00198,0.00004,0.00198,0.23822,0.00489,0.23832,2.55075,1.54995,0.03184,1.55061
0.07081,0.00184,0.00004,0.00194,0.22198,0.00485,0.23334,2.58103,1.47878,0.03228,1.55444
0.07164,0.00192,0.00004,0.0019,0.23163,0.00483,0.22849,2.61131,1.57947,0.03292,1.55803
0.07247,0.00187,0.00004,0.00186,0.22505,0.00476,0.22376,2.64159,1.57037,0.03325,1.56139
0.0733,0.00181,0.00004,0.00182,0.21802,0.00479,0.21916,2.67186,1.55643,0.03421,1.56454
0.07413,0.00177,0.00004,0.00178,0.21306,0.00475,0.21468,2.70214,1.5557,0.03465,1.56748
0.07496,0.00175,0.00004,0.00175,0.21022,0.00473,0.21031,2.73242,1.5695,0.03535,1.57023
0.07579,0.00164,0.00004,0.00171,0.19796,0.00469,0.20607,2.76269,1.51092,0.03578,1.57279
0.07662,0.00167,0.00004,0.00168,0.20133,0.00471,0.20193,2.79297,1.57051,0.03676,1.57518
0.07746,0.00159,0.00004,0.00164,0.19124,0.00468,0.1979,2.82325,1.52434,0.03729,1.5774
0.07829,0.00159,0.00004,0.00161,0.19194,0.00484,0.19397,2.85352,1.56289,0.03937,1.57945
0.07912,0.00161,0.00004,0.00158,0.1937,0.00491,0.19015,2.8838,1.61085,0.04082,1.58135
0.07995,0.00156,0.00004,0.00155,0.18805,0.005,0.18643,2.91408,1.59692,0.04242,1.5831
0.08078,0.00144,0.00004,0.00152,0.17367,0.00499,0.1828,2.94436,1.50563,0.04325,1.5847
0.08161,0.0015,0.00004,0.00149,0.18026,0.00505,0.17926,2.97464,1.59499,0.04467,1.58615
0.08244,0.00139,0.00004,0.00146,0.16756,0.00505,0.17581,3.00491,1.51302,0.04559,1.58745
0.08327,0.00143,0.00004,0.00143,0.17258,0.00513,0.17244,3.03519,1.58989,0.0473,1.58861
0.0841,0.00138,0.00004,0.0014,0.16626,0.00508,0.16916,3.06547,1.56236,0.0477,1.58963
0.08493,0.00137,0.00004,0.00138,0.16555,0.0049,0.16596,3.09575,1.58658,0.04694,1.59053
0.08576,0.00139,0.00004,0.00135,0.16783,0.00482,0.16284,3.12602,1.64001,0.04707,1.59131
0.08659,0.00127,0.00004,0.00133,0.1534,0.00476,0.1598,3.1563,1.52824,0.04743,1.59197
0.08742,0.00126,0.00004,0.0013,0.15187,0.00473,0.15683,3.18658,1.54212,0.04805,1.59254
0.08825,0.00134,0.00004,0.00128,0.16139,0.00467,0.15394,3.21685,1.67004,0.04832,1.593
0.08908,0.00128,0.00004,0.00126,0.15429,0.00461,0.15112,3.24713,1.62678,0.04858,1.59338
0.08992,0.00118,0.00004,0.00123,0.14246,0.00459,0.14837,3.27741,1.53019,0.04925,1.59367
0.09075,0.00126,0.00004,0.00121,0.15209,0.00456,0.14568,3.30768,1.66402,0.04984,1.59388
0.09158,0.00122,0.00004,0.00119,0.14702,0.00467,0.14306,3.33796,1.63808,0.05204,1.59401
0.09241,0.00121,0.00004,0.00117,0.14599,0.00476,0.14051,3.36824,1.65629,0.05403,1.59406
0.09324,0.00111,0.00004,0.00115,0.13364,0.0048,0.13801,3.39852,1.5435,0.05548,1.59405
0.09407,0.0011,0.00004,0.00113,0.13208,0.0048,0.13558,3.42879,1.55278,0.05639,1.59396
0.0949,0.00107,0.00004,0.00111,0.12921,0.00482,0.1332,3.45907,1.54601,0.05773,1.5938
0.09573,0.0011,0.00004,0.00109,0.13269,0.00468,0.13088,3.48935,1.61555,0.05701,1.59356
0.09656,0.00109,0.00004,0.00107,0.13095,0.00463,0.12861,3.51963,1.62214,0.05734,1.59325
0.09739,0.00107,0.00004,0.00105,0.12873,0.00456,0.1264,3.5499,1.62218,0.05745,1.59286
0.09822,0.00103,0.00004,0.00103,0.12416,0.00451,0.12424,3.58018,1.59142,0.05781,1.59241
0.09905,0.00096,0.00004,0.00101,0.11508,0.00446,0.12212,3.61046,1.50011,0.05809,1.5919
0.09988,0.00094,0.00004,0.001,0.11279,0.00442,0.12006,3.64074,1.49509,0.05862,1.59133
0.10071,0.00101,0.00004,0.00098,0.12147,0.0044,0.11804,3.67103,1.63701,0.05928,1.59071
0.10154,0.00098,0.00004,0.00096,0.11774,0.00438,0.11607,3.70128,1.61296,0.06001,1.59005
0.10237,0.00095,0.00004,0.00095,0.11472,0.00435,0.11414,3.73157,1.59739,0.06051,1.58934
0.10321,0.00092,0.00004,0.00093,0.11052,0.00432,0.11226,3.76186,1.56408,0.06117,1.58859
0.10404,0.00092,0.00004,0.00092,0.11113,0.00433,0.11042,3.79211,1.59805,0.06224,1.58781
0.10487,0.00085,0.00004,0.0009,0.10258,0.0043,0.10862,3.8224,1.49881,0.06276,1.58699
0.1057,0.00083,0.00004,0.00089,0.09994,0.00429,0.10686,3.85269,1.48343,0.06361,1.58614
0.10653,0.00087,0.00004,0.00087,0.10474,0.00424,0.10514,3.88295,1.57915,0.06394,1.58525
0.10736,0.00087,0.00004,0.00086,0.10506,0.00426,0.10346,3.91324,1.60876,0.0653,1.58434
0.10819,0.0008,0.00004,0.00085,0.09638,0.00424,0.10182,3.94353,1.49888,0.06591,1.58339
0.10902,0.00081,0.00003,0.00083,0.09764,0.00421,0.10021,3.97378,1.54177,0.06646,1.5824
0.10985,0.0008,0.00003,0.00082,0.09607,0.00419,0.09864,4.00407,1.54031,0.0672,1.58138
0.11068,0.00084,0.00003,0.00081,0.10164,0.0042,0.0971,4.03432,1.65432,0.06832,1.58032
0.11151,0.00081,0.00003,0.00079,0.09779,0.00417,0.09559,4.06461,1.61567,0.06894,1.57923
0.11234,0.00077,0.00003,0.00078,0.09222,0.00415,0.09411,4.0949,1.54636,0.06965,1.57811
0.11317,0.00077,0.00003,0.00077,0.09248,0.00414,0.09267,4.12516,1.57369,0.07049,1.57696
0.114,0.00072,0.00003,0.00076,0.08687,0.00412,0.09126,4.15545,1.5,0.07119,1.57578
0.11484,0.00076,0.00003,0.00075,0.09112,0.0041,0.08987,4.18574,1.59639,0.07188,1.57459
0.11567,0.00074,0.00003,0.00074,0.08921,0.00411,0.08852,4.21599,1.58571,0.07306,1.57338
0.1165,0.00071,0.00003,0.00072,0.08531,0.00408,0.08719,4.24628,1.53827,0.07352,1.57215
0.11733,0.00074,0.00003,0.00071,0.08918,0.00408,0.08589,4.27657,1.63108,0.07461,1.5709
0.11816,0.00072,0.00003,0.0007,0.08633,0.00405,0.08462,4.30682,1.60129,0.07519,1.56965
0.11899,0.00064,0.00003,0.00069,0.0767,0.00406,0.08338,4.33711,1.44274,0.07633,1.56838
0.11982,0.00066,0.00003,0.00068,0.0793,0.00401,0.08216,4.3674,1.51267,0.07642,1.56709
0.12065,0.00066,0.00003,0.00067,0.07887,0.00399,0.08096,4.39766,1.52526,0.07715,1.5658
0.12148,0.00069,0.00003,0.00066,0.0832,0.00397,0.07979,4.42795,1.63124,0.07777,1.56449
0.12231,0.00058,0.00003,0.00065,0.06989,0.00395,0.07865,4.45824,1.38906,0.07848,1.56317
0.12314,0.00062,0.00003,0.00064,0.07463,0.00393,0.07752,4.48849,1.50363,0.07927,1.56183
0.12397,0.0006,0.00003,0.00063,0.07274,0.00393,0.07642,4.51878,1.48524,0.08027,1.56047
0.1248,0.0006,0.00003,0.00063,0.07208,0.00392,0.07534,4.54907,1.49165,0.08109,1.55909
0.12563,0.0006,0.00003,0.00062,0.07227,0.00391,0.07428,4.57932,1.51549,0.08193,1.5577
0.12646,0.0006,0.00003,0.00061,0.07276,0.00389,0.07324,4.60961,1.54599,0.08269,1.5563
0.12729,0.00063,0.00003,0.0006,0.07551,0.00391,0.07222,4.63987,1.62563,0.08423,1.55488
0.12813,0.00061,0.00003,0.00059,0.07335,0.00389,0.07123,4.67016,1.59987,0.08482,1.55346
0.12896,0.00054,0.00003,0.00058,0.06477,0.00386,0.07025,4.70045,1.43094,0.08523,1.55203
0.12979,0.00052,0.00003,0.00058,0.06222,0.00384,0.06929,4.7307,1.39245,0.08604,1.5506
0.13062,0.00061,0.00003,0.00057,0.07316,0.00386,0.06834,4.76099,1.65825,0.08744,1.54916
0.13145,0.00055,0.00003,0.00056,0.06617,0.00382,0.06742,4.79128,1.51905,0.08768,1.54771
0.13228,0.00053,0.00003,0.00055,0.06379,0.00381,0.06651,4.82153,1.48298,0.08853,1.54627
0.13311,0.00056,0.00003,0.00055,0.06759,0.00381,0.06562,4.85182,1.59099,0.0898,1.54482
0.13394,0.00057,0.00003,0.00054,0.06803,0.00381,0.06475,4.88211,1.62149,0.0907,1.54337
0.13477,0.00054,0.00003,0.00053,0.06525,0.00378,0.0639,4.91237,1.57466,0.0912,1.54191
0.1356,0.00055,0.00003,0.00052,0.06643,0.00376,0.06306,4.94266,1.62284,0.09197,1.54045
0.13643,0.0005,0.00003,0.00052,0.06046,0.00383,0.06223,4.97295,1.4953,0.09471,1.53899
0.13726,0.00055,0.00003,0.00051,0.06624,0.00392,0.06142,5.0032,1.65817,0.09814,1.53752
0.13809,0.00049,0.00003,0.0005,0.05941,0.00397,0.06063,5.03349,1.50511,0.10057,1.53604
0.13892,0.00049,0.00003,0.0005,0.05927,0.00401,0.05985,5.06378,1.51971,0.10291,1.53455
0.13975,0.00056,0.00003,0.00049,0.06735,0.00404,0.05908,5.09403,1.74767,0.10481,1.53306
0.14059,0.00044,0.00003,0.00048,0.05318,0.00404,0.05833,5.12432,1.39649,0.10611,1.53157
0.14142,0.00049,0.00003,0.00048,0.05939,0.0041,0.05759,5.15461,1.57788,0.1088,1.53007
0.14225,0.00048,0.00003,0.00047,0.05749,0.0041,0.05686,5.18487,1.54554,0.11023,1.52857
0.14308,0.00051,0.00003,0.00047,0.06133,0.00402,0.05615,5.21516,1.66812,0.10939,1.52708
0.14391,0.0005,0.00003,0.00046,0.06027,0.00391,0.05545,5.24545,1.65822,0.10753,1.52558
0.14474,0.00045,0.00003,0.00045,0.05445,0.00388,0.05476,5.2757,1.51554,0.10794,1.52408
0.14557,0.00046,0.00003,0.00045,0.0551,0.00384,0.05408,5.30599,1.55122,0.10803,1.52259
0.1464,0.00044,0.00003,0.00044,0.05341,0.0038,0.05342,5.33624,1.521,0.1081,1.5211
0.14723,0.00044,0.00003,0.00044,0.05247,0.00379,0.05276,5.36653,1.51104,0.10907,1.5196
0.14806,0.00048,0.00003,0.00043,0.05744,0.00377,0.05212,5.39682,1.67304,0.1099,1.51811
0.14889,0.00049,0.00003,0.00043,0.05886,0.00374,0.05149,5.42708,1.73371,0.11014,1.51662
0.14972,0.00044,0.00003,0.00042,0.0535,0.00373,0.05087,5.45737,1.59325,0.11095,1.51513
0.15055,0.00043,0.00003,0.00042,0.05218,0.00372,0.05026,5.48766,1.5715,0.11208,1.51364
0.15138,0.00038,0.00003,0.00041,0.04578,0.00372,0.04966,5.51791,1.39374,0.11323,1.51214
0.15221,0.00041,0.00003,0.00041,0.04972,0.00368,0.04907,5.5482,1.53059,0.1133,1.51064
0.15305,0.00041,0.00003,0.0004,0.04953,0.00367,0.04849,5.57849,1.54132,0.11419,1.50914
0.15388,0.00038,0.00003,0.0004,0.04619,0.00366,0.04793,5.60874,1.4529,0.11508,1.50763
0.15471,0.00036,0.00003,0.00039,0.04332,0.00364,0.04736,5.63903,1.37763,0.1159,1.50613
0.15554,0.00042,0.00003,0.00039,0.05021,0.00363,0.04681,5.66932,1.61397,0.11678,1.50463
0.15637,0.00044,0.00003,0.00038,0.05338,0.00363,0.04627,5.69958,1.73407,0.11801,1.50313
0.1572,0.00038,0.00003,0.00038,0.04565,0.00359,0.04574,5.72987,1.49871,0.11787,1.50163
0.15803,0.0004,0.00003,0.00038,0.04792,0.00357,0.04521,5.76016,1.58979,0.11848,1.50014
0.15886,0.00041,0.00003,0.00037,0.04917,0.00359,0.0447,5.79041,1.64852,0.12044,1.49865
0.15969,0.00039,0.00003,0.00037,0.04654,0.00358,0.04419,5.8207,1.57669,0.12139,1.49716
0.16052,0.00044,0.00003,0.00036,0.05251,0.00355,0.04369,5.85099,1.79751,0.12168,1.49568
0.16135,0.00037,0.00003,0.00036,0.04457,0.00354,0.0432,5.88124,1.54161,0.12258,1.4942
0.16218,0.00031,0.00003,0.00035,0.0379,0.00353,0.04271,5.91153,1.32454,0.12319,1.49272
0.16301,0.00029,0.00003,0.00035,0.03484,0.00351,0.04224,5.94182,1.22995,0.12396,1.49125
0.16384,0.00043,0.00003,0.00035,0.05166,0.00351,0.04177,5.97208,1.84264,0.12507,1.48978
0.16467,0.00039,0.00003,0.00034,0.04656,0.0035,0.04131,6.00237,1.67738,0.12609,1.48831
0.1655,0.00037,0.00003,0.00034,0.04503,0.00349,0.04086,6.03262,1.63879,0.12699,1.48684
0.16634,0.00033,0.00003,0.00034,0.04011,0.00345,0.04041,6.06291,1.47439,0.12668,1.48537
0.16717,0.00033,0.00003,0.00033,0.03955,0.00345,0.03997,6.0932,1.46825,0.12794,1.48391
0.168,0.00035,0.00003,0.00033,0.04193,0.00343,0.03954,6.12345,1.57217,0.12876,1.48244
0.16883,0.00035,0.00003,0.00032,0.04183,0.00343,0.03911,6.15374,1.58408,0.13001,1.48099
0.16966,0.00032,0.00003,0.00032,0.03896,0.00343,0.03869,6.18403,1.48992,0.1311,1.47953
0.17049,0.0003,0.00003,0.00032,0.03588,0.00342,0.03828,6.21429,1.38561,0.1321,1.47808
0.17132,0.00033,0.00003,0.00031,0.0396,0.00342,0.03787,6.24458,1.54409,0.13344,1.47663
0.17215,0.00024,0.00003,0.00031,0.02854,0.00341,0.03747,6.27487,1.12382,0.13422,1.47519
0.17298,0.00036,0.00003,0.00031,0.04293,0.00341,0.03707,6.30512,1.70676,0.13567,1.47376
0.17381,0.0003,0.00003,0.0003,0.03636,0.0034,0.03668,6.33541,1.45954,0.1364,1.47232
0.17464,0.00033,0.00003,0.0003,0.04029,0.00337,0.0363,6.3657,1.63256,0.13675,1.4709
0.17547,0.00035,0.00003,0.0003,0.04185,0.00339,0.03592,6.39595,1.71199,0.13879,1.46947
0.1763,0.00033,0.00003,0.0003,0.03977,0.00338,0.03555,6.42624,1.64254,0.1395,1.46805
0.17713,0.00032,0.00003,0.00029,0.03874,0.00337,0.03518,6.45653,1.61477,0.14045,1.46663
0.17796,0.00031,0.00003,0.00029,0.03786,0.00336,0.03482,6.48679,1.59309,0.14151,1.46522
0.1788,0.00029,0.00003,0.00029,0.03507,0.00336,0.03446,6.51708,1.48955,0.14283,1.4638
0.17963,0.0003,0.00003,0.00028,0.03661,0.00334,0.03411,6.54737,1.56951,0.14318,1.46239
0.18046,0.00032,0.00003,0.00028,0.03888,0.00333,0.03377,6.57762,1.68215,0.14426,1.46098
0.18129,0.00028,0.00003,0.00028,0.03398,0.00333,0.03343,6.60791,1.48352,0.14554,1.45957
0.18212,0.00033,0.00003,0.00027,0.03938,0.00334,0.03309,6.6382,1.73535,0.14707,1.45817
0.18295,0.00029,0.00003,0.00027,0.03452,0.00336,0.03276,6.66845,1.53525,0.14929,1.45677
0.18378,0.0003,0.00003,0.00027,0.03664,0.00335,0.03243,6.69874,1.64427,0.15044,1.45537
0.18461,0.00026,0.00003,0.00027,0.03117,0.00335,0.03211,6.729,1.41131,0.1519,1.45398
0.18544,0.00029,0.00003,0.00026,0.03505,0.00336,0.03179,6.75929,1.6012,0.15348,1.45259
0.18627,0.00023,0.00003,0.00026,0.028,0.00335,0.03148,6.78958,1.29087,0.1542,1.45121
0.1871,0.00025,0.00003,0.00026,0.03066,0.00334,0.03117,6.81983,1.42603,0.15532,1.44983
0.18793,0.0003,0.00003,0.00026,0.03604,0.00332,0.03087,6.85012,1.69095,0.15558,1.44846
0.18876,0.0003,0.00003,0.00025,0.03664,0.00329,0.03057,6.88041,1.73451,0.1557,1.44709
0.18959,0.00031,0.00003,0.00025,0.03791,0.00329,0.03027,6.91066,1.81053,0.15733,1.44573
0.19042,0.00025,0.00003,0.00025,0.03009,0.00328,0.02998,6.94095,1.44952,0.1582,1.44437
0.19126,0.00027,0.00003,0.00025,0.03222,0.00328,0.02969,6.97124,1.56574,0.15952,1.44302
0.19209,0.00028,0.00003,0.00024,0.0336,0.00326,0.02941,7.0015,1.64724,0.15986,1.44167
0.19292,0.00022,0.00003,0.00024,0.0268,0.00326,0.02913,7.03179,1.32521,0.16122,1.44033
0.19375,0.00023,0.00003,0.00024,0.0278,0.00324,0.02885,7.06208,1.38633,0.16167,1.43899
0.19458,0.00032,0.00003,0.00024,0.03824,0.00323,0.02858,7.09233,1.92348,0.16254,1.43766
0.19541,0.00026,0.00003,0.00024,0.03167,0.00333,0.02831,7.12262,1.60655,0.16877,1.43633
0.19624,0.00024,0.00003,0.00023,0.02914,0.00337,0.02805,7.15291,1.49078,0.17261,1.435
0.19707,0.00029,0.00003,0.00023,0.03438,0.00339,0.02779,7.18316,1.77417,0.17496,1.43369
0.1979,0.00024,0.00003,0.00023,0.02884,0.00341,0.02753,7.21345,1.50073,0.17752,1.43238
0.19873,0.00024,0.00003,0.00023,0.02937,0.00345,0.02727,7.24374,1.54086,0.18106,1.43107
0.19956,0.00025,0.00003,0.00022,0.03062,0.00346,0.02702,7.274,1.62021,0.18316,1.42977
0.20039,0.00025,0.00003,0.00022,0.03036,0.00347,0.02677,7.30429,1.61989,0.18503,1.42848
0.20122,0.00023,0.00003,0.00022,0.02826,0.00351,0.02653,7.33458,1.5201,0.18858,1.42719
0.20205,0.00019,0.00003,0.00022,0.02252,0.00341,0.02629,7.36483,1.22134,0.18506,1.42591
0.20288,0.00024,0.00003,0.00022,0.02858,0.00339,0.02605,7.39512,1.56315,0.18523,1.42464
0.20371,0.00019,0.00003,0.00021,0.02288,0.00333,0.02582,7.42538,1.26176,0.18386,1.42337
0.20455,0.00023,0.00003,0.00021,0.02733,0.00333,0.02558,7.45567,1.51895,0.18493,1.4221
0.20538,0.00027,0.00003,0.00021,0.03221,0.0033,0.02535,7.48596,1.80504,0.18483,1.42084
0.20621,0.00026,0.00003,0.00021,0.03085,0.00329,0.02513,7.51621,1.74274,0.18601,1.41959
0.20704,0.00026,0.00003,0.00021,0.03102,0.00329,0.02491,7.5465,1.76672,0.18709,1.41834
0.20787,0.00021,0.00003,0.00021,0.02534,0.00328,0.02468,7.57679,1.45457,0.18806,1.41709
0.2087,0.00025,0.00003,0.0002,0.0301,0.00325,0.02447,7.60704,1.74159,0.18803,1.41586
0.20953,0.00022,0.00003,0.0002,0.02671,0.00325,0.02425,7.63733,1.55804,0.18953,1.41462
0.21036,0.00017,0.00003,0.0002,0.02026,0.00324,0.02404,7.66762,1.19124,0.19064,1.41339
0.21119,0.00022,0.00003,0.0002,0.02602,0.00323,0.02383,7.69788,1.5419,0.19118,1.41217
0.21202,0.00021,0.00003,0.0002,0.02489,0.00321,0.02362,7.72817,1.48668,0.19162,1.41095
0.21285,0.00024,0.00003,0.00019,0.02835,0.00321,0.02342,7.75846,1.70675,0.19311,1.40974
0.21368,0.00021,0.00003,0.00019,0.02546,0.0032,0.02322,7.78871,1.5445,0.19439,1.40853
0.21451,0.00018,0.00003,0.00019,0.02127,0.00319,0.02302,7.819,1.30012,0.19489,1.40733
0.21534,0.0002,0.00003,0.00019,0.02467,0.00319,0.02282,7.84929,1.52012,0.19625,1.40614
0.21617,0.00022,0.00003,0.00019,0.02674,0.00317,0.02263,7.87954,1.65998,0.19682,1.40495
0.21701,0.00018,0.00003,0.00019,0.0222,0.00316,0.02244,7.90983,1.38871,0.19762,1.40377
0.21784,0.00017,0.00003,0.00018,0.02085,0.00315,0.02225,7.94012,1.31479,0.19841,1.40259
0.21867,0.00023,0.00003,0.00018,0.02797,0.00315,0.02206,7.97038,1.77689,0.20022,1.40142
0.2195,0.00019,0.00003,0.00018,0.02305,0.00314,0.02188,8.00067,1.47565,0.20102,1.40025
0.22033,0.0002,0.00003,0.00018,0.02452,0.00314,0.02169,8.03092,1.58169,0.2023,1.39909
0.22116,0.00019,0.00003,0.00018,0.02229,0.00313,0.02151,8.06121,1.44841,0.20319,1.39793
0.22199,0.0002,0.00003,0.00018,0.02367,0.00312,0.02133,8.0915,1.54996,0.20459,1.39678
0.22282,0.00014,0.00003,0.00018,0.01737,0.00312,0.02116,8.12175,1.14548,0.20568,1.39563
0.22365,0.00019,0.00003,0.00017,0.02279,0.00313,0.02098,8.15204,1.51443,0.20769,1.39449
0.22448,0.00021,0.00003,0.00017,0.0248,0.00312,0.02081,8.18233,1.66047,0.209,1.39335
0.22531,0.00023,0.00003,0.00017,0.02759,0.0031,0.02064,8.21259,1.86089,0.2094,1.39222
0.22614,0.00022,0.00003,0.00017,0.02701,0.00309,0.02047,8.24288,1.83527,0.21002,1.39109
0.22697,0.00021,0.00003,0.00017,0.02539,0.0031,0.02031,8.27317,1.73797,0.21233,1.38997
0.2278,0.0002,0.00003,0.00017,0.02433,0.00308,0.02014,8.30342,1.67778,0.21227,1.38886
0.22863,0.00019,0.00003,0.00017,0.02291,0.00306,0.01998,8.33371,1.59078,0.21264,1.38775
0.22947,0.00021,0.00003,0.00016,0.02535,0.00307,0.01982,8.364,1.77356,0.21448,1.38664
0.2303,0.00022,0.00003,0.00016,0.02624,0.00308,0.01966,8.39425,1.8493,0.21735,1.38555
0.23113,0.00024,0.00003,0.00016,0.02915,0.0031,0.01951,8.42454,2.06911,0.21995,1.38446
0.23196,0.00025,0.00003,0.00016,0.02971,0.0031,0.01935,8.45483,2.12403,0.22192,1.38337
0.23279,0.00017,0.00003,0.00016,0.02015,0.00311,0.0192,8.48509,1.45087,0.22424,1.38229
0.23362,0.00018,0.00003,0.00016,0.02156,0.00311,0.01905,8.51538,1.56358,0.22556,1.38121
0.23445,0.00017,0.00003,0.00016,0.02074,0.00309,0.0189,8.54567,1.51468,0.22552,1.38014
0.23528,0.00021,0.00003,0.00016,0.02529,0.00309,0.01875,8.57592,1.85968,0.22726,1.37908
0.23611,0.00014,0.00003,0.00015,0.01669,0.00308,0.01861,8.60621,1.23633,0.22782,1.37802
0.23694,0.0002,0.00003,0.00015,0.02428,0.00308,0.01846,8.6365,1.81099,0.22975,1.37696
0.23777,0.00021,0.00003,0.00015,0.0248,0.00305,0.01832,8.66675,1.86264,0.2291,1.37592
0.2386,0.00017,0.00003,0.00015,0.02033,0.00306,0.01818,8.69704,1.53762,0.2311,1.37487
0.23943,0.00022,0.00003,0.00015,0.02637,0.00305,0.01804,8.7273,2.00828,0.23208,1.37384
0.24026,0.00014,0.00003,0.00015,0.01723,0.00303,0.0179,8.75759,1.32138,0.23233,1.37281
0.24109,0.00012,0.00003,0.00015,0.01476,0.00303,0.01776,8.78788,1.13978,0.23405,1.37178
0.24192,0.00017,0.00003,0.00015,0.02023,0.00303,0.01763,8.81813,1.57335,0.2355,1.37077
0.24276,0.00013,0.00002,0.00015,0.0156,0.00299,0.01749,8.84842,1.22163,0.23448,1.36976
0.24359,0.00013,0.00002,0.00014,0.01567,0.00299,0.01736,8.87871,1.23506,0.23533,1.36875
0.24442,0.00018,0.00002,0.00014,0.02147,0.00299,0.01723,8.90896,1.70375,0.23708,1.36775
0.24525,0.00019,0.00002,0.00014,0.02316,0.00299,0.0171,8.93925,1.85111,0.23918,1.36676
0.24608,0.00018,0.00002,0.00014,0.02137,0.00299,0.01698,8.96954,1.71967,0.24032,1.36578
0.24691,0.0002,0.00002,0.00014,0.02359,0.00301,0.01685,8.9998,1.91064,0.24348,1.3648
0.24774,0.00019,0.00002,0.00014,0.02304,0.00299,0.01673,9.03009,1.87879,0.24416,1.36383
0.24857,0.00018,0.00002,0.00014,0.02153,0.00297,0.0166,9.06038,1.76721,0.24396,1.36286
0.2494,0.00016,0.00002,0.00014,0.01941,0.00297,0.01648,9.09063,1.60428,0.24552,1.3619
0.25023,0.00016,0.00002,0.00014,0.01872,0.00298,0.01636,9.12092,1.55693,0.24779,1.36095
0.25106,0.00013,0.00002,0.00013,0.0158,0.00298,0.01624,9.15121,1.32299,0.24967,1.36
0.25189,0.00015,0.00002,0.00013,0.01794,0.00297,0.01612,9.18146,1.51251,0.25004,1.35906
0.25272,0.00017,0.00002,0.00013,0.01996,0.00297,0.01601,9.21175,1.69393,0.25215,1.35813
0.25355,0.00017,0.00002,0.00013,0.021,0.00296,0.01589,9.24204,1.79403,0.25315,1.3572
0.25438,0.00016,0.00003,0.00013,0.01951,0.00305,0.01578,9.2723,1.67717,0.26236,1.35628
0.25522,0.00018,0.00003,0.00013,0.02141,0.00311,0.01566,9.30259,1.85287,0.26939,1.35536
0.25605,0.00014,0.00003,0.00013,0.01628,0.00312,0.01555,9.33288,1.41786,0.27204,1.35445
0.25688,0.00017,0.00003,0.00013,0.02067,0.00315,0.01544,9.36313,1.81217,0.27617,1.35354
0.25771,0.00012,0.00003,0.00013,0.01475,0.00317,0.01533,9.39342,1.30188,0.27993,1.35264
0.25854,0.00015,0.00003,0.00013,0.01832,0.0032,0.01522,9.42367,1.62735,0.28391,1.35174
0.25937,0.00013,0.00003,0.00013,0.0161,0.00321,0.01511,9.45396,1.43938,0.28719,1.35085
0.2602,0.00014,0.00003,0.00012,0.01683,0.0032,0.01501,9.48425,1.51401,0.28794,1.34996
0.26103,0.00012,0.00003,0.00012,0.01434,0.00312,0.0149,9.51451,1.29815,0.28243,1.34908
0.26186,0.00016,0.00003,0.00012,0.01867,0.0031,0.0148,9.5448,1.70133,0.28203,1.3482
0.26269,0.00014,0.00003,0.00012,0.0163,0.00307,0.0147,9.57509,1.494,0.28141,1.34732
0.26352,0.00017,0.00003,0.00012,0.02023,0.00306,0.01459,9.60534,1.86632,0.28251,1.34645
0.26435,0.00017,0.00003,0.00012,0.01991,0.00306,0.01449,9.63563,1.84823,0.28445,1.34558
0.26518,0.00013,0.00003,0.00012,0.01578,0.00303,0.01439,9.66592,1.47459,0.2829,1.34471
0.26601,0.00014,0.00003,0.00012,0.01651,0.00301,0.01429,9.69617,1.55244,0.2832,1.34386
0.26684,0.00019,0.00002,0.00012,0.02281,0.003,0.0142,9.72646,2.15796,0.28401,1.343
0.26768,0.00017,0.00002,0.00012,0.02004,0.00299,0.0141,9.75675,1.90752,0.28457,1.34215
0.2685,0.00015,0.00002,0.00012,0.01804,0.00297,0.014,9.78701,1.72831,0.28471,1.34131
0.26934,0.00017,0.00002,0.00012,0.01991,0.00296,0.01391,9.8173,1.9185,0.28533,1.34047
0.27017,0.00016,0.00002,0.00011,0.019,0.00294,0.01381,9.84759,1.8424,0.2852,1.33963
0.271,0.00012,0.00002,0.00011,0.01501,0.00294,0.01372,9.87784,1.46434,0.28644,1.3388
0.27183,0.00011,0.00002,0.00011,0.013,0.00294,0.01363,9.90813,1.27584,0.28895,1.33798
0.27266,0.00014,0.00002,0.00011,0.01663,0.00295,0.01354,9.93842,1.64275,0.29135,1.33716
0.27349,0.00012,0.00002,0.00011,0.01482,0.00294,0.01345,9.96867,1.47244,0.29205,1.33635
0.27432,0.00018,0.00002,0.00011,0.02129,0.00292,0.01336,9.99896,2.12821,0.29238,1.33554
0.27515,0.00012,0.00002,0.00011,0.01479,0.00292,0.01327,10.02925,1.48766,0.2939,1.33474
0.27598,0.00015,0.00002,0.00011,0.01805,0.00292,0.01318,10.05951,1.82609,0.2956,1.33394
0.27681,0.00012,0.00002,0.00011,0.01455,0.00291,0.0131,10.0898,1.48133,0.29658,1.33315
0.27764,0.00014,0.00002,0.00011,0.01681,0.00293,0.01301,10.12005,1.72145,0.29961,1.33237
0.27847,0.00016,0.00002,0.00011,0.01883,0.00292,0.01292,10.15034,1.94043,0.30047,1.33158
0.2793,0.00016,0.00002,0.00011,0.01891,0.00291,0.01284,10.18063,1.96,0.30208,1.33081
0.28013,0.00015,0.00002,0.00011,0.0186,0.0029,0.01276,10.21088,1.93946,0.30214,1.33004
0.28097,0.00013,0.00002,0.00011,0.01542,0.0029,0.01267,10.24117,1.61695,0.30386,1.32927
0.2818,0.00015,0.00002,0.0001,0.01756,0.00289,0.01259,10.27146,1.85261,0.3047,1.32851
0.28263,0.00021,0.00002,0.0001,0.02531,0.0029,0.01251,10.30172,2.68612,0.30729,1.32775
0.28346,0.00013,0.00002,0.0001,0.01527,0.00288,0.01243,10.33201,1.63058,0.30775,1.327
0.28429,0.00013,0.00002,0.0001,0.01535,0.00289,0.01235,10.3623,1.64793,0.30981,1.32625
0.28512,0.00014,0.00002,0.0001,0.01744,0.00288,0.01227,10.39255,1.88308,0.31065,1.3255
0.28595,0.00013,0.00002,0.0001,0.01526,0.00287,0.01219,10.42284,1.65801,0.312,1.32476
0.28678,0.00011,0.00002,0.0001,0.01371,0.00286,0.01212,10.45313,1.49859,0.31292,1.32402
0.28761,0.00013,0.00002,0.0001,0.01596,0.00287,0.01204,10.48338,1.75348,0.31505,1.32328
0.28844,0.00014,0.00002,0.0001,0.0172,0.00286,0.01196,10.51367,1.90122,0.31605,1.32255
0.28927,0.00013,0.00002,0.0001,0.01516,0.00286,0.01189,10.54396,1.68566,0.3175,1.32181
0.2901,0.00013,0.00002,0.0001,0.01575,0.00285,0.01182,10.57422,1.76052,0.31842,1.32108
0.29093,0.00014,0.00002,0.0001,0.01723,0.00285,0.01174,10.60451,1.93817,0.32034,1.32036
0.29176,0.00013,0.00002,0.0001,0.01616,0.00284,0.01167,10.6348,1.82754,0.32109,1.31963
0.29259,0.00014,0.00002,0.0001,0.01698,0.00285,0.0116,10.66505,1.93155,0.32386,1.31891
0.29342,0.00011,0.00002,0.0001,0.0131,0.00284,0.01152,10.69534,1.49836,0.3243,1.31819
0.29426,0.00015,0.00002,0.0001,0.01833,0.00283,0.01145,10.72563,2.10911,0.32574,1.31748
0.29509,0.00015,0.00002,0.00009,0.01813,0.00283,0.01138,10.75588,2.09724,0.32751,1.31677
0.29592,0.00011,0.00002,0.00009,0.01271,0.00283,0.01131,10.78617,1.47887,0.32928,1.31606
0.29675,0.00009,0.00002,0.00009,0.0107,0.00282,0.01124,10.81643,1.25183,0.32963,1.31535
0.29758,0.00015,0.00002,0.00009,0.01813,0.00281,0.01117,10.84672,2.13308,0.3309,1.31465
0.29841,0.00015,0.00002,0.00009,0.01772,0.00281,0.01111,10.87701,2.09665,0.33301,1.31395
0.29924,0.00012,0.00002,0.00009,0.01488,0.00282,0.01104,10.90726,1.7698,0.33498,1.31326
0.30007,0.00017,0.00002,0.00009,0.01989,0.00281,0.01097,10.93755,2.37965,0.33653,1.31257
0.3009,0.00016,0.00002,0.00009,0.01916,0.00281,0.01091,10.96784,2.30504,0.33752,1.31189
0.30173,0.00013,0.00002,0.00009,0.01546,0.00279,0.01084,10.99809,1.86992,0.33716,1.31121
0.30256,0.00013,0.00002,0.00009,0.01513,0.00279,0.01078,11.02838,1.84021,0.33901,1.31053
0.30339,0.00013,0.00002,0.00009,0.01558,0.00278,0.01071,11.05867,1.90594,0.34015,1.30985
0.30422,0.0001,0.00002,0.00009,0.01182,0.00278,0.01065,11.08893,1.45355,0.34223,1.30919
0.30505,0.00012,0.00002,0.00009,0.0145,0.00279,0.01058,11.11922,1.79265,0.34435,1.30852
0.30589,0.00013,0.00002,0.00009,0.01556,0.00279,0.01052,11.14951,1.93428,0.34644,1.30786
0.30672,0.00012,0.00002,0.00009,0.01451,0.00278,0.01046,11.17976,1.81338,0.34798,1.30721
0.30755,0.00012,0.00002,0.00009,0.01499,0.00278,0.0104,11.21005,1.88407,0.34936,1.30656
0.30838,0.00014,0.00002,0.00009,0.01626,0.00277,0.01034,11.24034,2.05395,0.35054,1.30592
0.30921,0.00013,0.00002,0.00009,0.01621,0.00279,0.01028,11.27059,2.05894,0.3546,1.30528
0.31004,0.00012,0.00002,0.00008,0.01489,0.00277,0.01022,11.30088,1.90102,0.35423,1.30465
0.31087,0.00009,0.00002,0.00008,0.01067,0.00277,0.01016,11.33117,1.36954,0.3553,1.30403
0.3117,0.00017,0.00002,0.00008,0.02066,0.00277,0.0101,11.36143,2.66718,0.35703,1.30341
0.31253,0.00016,0.00002,0.00008,0.01946,0.00281,0.01004,11.39172,2.52542,0.36455,1.3028
0.31336,0.00011,0.00002,0.00008,0.01325,0.00286,0.00998,11.42197,1.7286,0.3725,1.30219
0.31419,0.00013,0.00002,0.00008,0.01558,0.00289,0.00992,11.45226,2.04323,0.37888,1.30159
0.31502,0.0001,0.00002,0.00008,0.01144,0.00292,0.00987,11.48255,1.50874,0.38541,1.301
0.31585,0.00012,0.00002,0.00008,0.01404,0.00295,0.00981,11.51281,1.86158,0.39046,1.30042
0.31668,0.00015,0.00002,0.00008,0.01789,0.00296,0.00976,11.5431,2.38314,0.39501,1.29984
0.31751,0.00008,0.00002,0.00008,0.00962,0.00298,0.0097,11.57339,1.28858,0.39932,1.29927
0.31834,0.00014,0.00002,0.00008,0.01672,0.003,0.00965,11.60364,2.25171,0.40424,1.29871
0.31917,0.00013,0.00002,0.00008,0.01561,0.00297,0.00959,11.63393,2.11225,0.40155,1.29815
0.32001,0.00013,0.00002,0.00008,0.01541,0.00291,0.00954,11.66422,2.0963,0.39563,1.2976
0.32084,0.00011,0.00002,0.00008,0.01299,0.00287,0.00948,11.69447,1.77654,0.39285,1.29705
0.32167,0.00009,0.00002,0.00008,0.01031,0.00286,0.00943,11.72476,1.4179,0.39344,1.29651
0.3225,0.00007,0.00002,0.00008,0.00871,0.00286,0.00938,11.75505,1.204,0.39534,1.29598
0.32333,0.00008,0.00002,0.00008,0.00911,0.00284,0.00933,11.78531,1.26594,0.39417,1.29545
0.32416,0.00012,0.00002,0.00008,0.01426,0.00283,0.00928,11.8156,1.99022,0.3954,1.29493
0.32499,0.00012,0.00002,0.00008,0.01471,0.00283,0.00922,11.84589,2.06387,0.39661,1.29441
0.32582,0.00011,0.00002,0.00008,0.01285,0.00281,0.00917,11.87614,1.81299,0.39566,1.2939
0.32665,0.00013,0.00002,0.00008,0.01528,0.0028,0.00912,11.90643,2.16625,0.39759,1.29339
0.32748,0.00013,0.00002,0.00008,0.0161,0.0028,0.00907,11.93672,2.29434,0.39915,1.29289
0.32831,0.00009,0.00002,0.00007,0.01103,0.00278,0.00902,11.96697,1.57908,0.39838,1.29239
0.32914,0.00009,0.00002,0.00007,0.01124,0.00278,0.00898,11.99726,1.61795,0.40036,1.29189
0.32997,0.00012,0.00002,0.00007,0.01436,0.00278,0.00893,12.02755,2.07717,0.40203,1.2914
0.3308,0.00014,0.00002,0.00007,0.0171,0.00277,0.00888,12.05781,2.48576,0.40317,1.29091
0.33164,0.00013,0.00002,0.00007,0.01592,0.00277,0.00883,12.0881,2.32565,0.40425,1.29042
0.33247,0.00011,0.00002,0.00007,0.01267,0.00278,0.00878,12.11835,1.86064,0.40755,1.28994
0.3333,0.00008,0.00002,0.00007,0.00923,0.00277,0.00874,12.14864,1.36185,0.40928,1.28946
0.33413,0.0001,0.00002,0.00007,0.01261,0.00275,0.00869,12.17893,1.87068,0.40817,1.28898
0.33496,0.00011,0.00002,0.00007,0.01341,0.00275,0.00864,12.20918,1.99848,0.41022,1.2885
0.33579,0.00011,0.00002,0.00007,0.0137,0.00276,0.0086,12.23947,2.05261,0.41282,1.28803
0.33662,0.00005,0.00002,0.00007,0.00646,0.00275,0.00855,12.26976,0.97281,0.4145,1.28756
0.33745,0.00011,0.00002,0.00007,0.01283,0.00274,0.00851,12.30002,1.94165,0.41522,1.2871
0.33828,0.00008,0.00002,0.00007,0.01008,0.00273,0.00846,12.33031,1.53178,0.41533,1.28664
0.33911,0.00009,0.00002,0.00007,0.01081,0.00273,0.00842,12.3606,1.65184,0.41722,1.28618
0.33994,0.00013,0.00002,0.00007,0.01546,0.00273,0.00837,12.39085,2.3743,0.41888,1.28572
0.34077,0.00006,0.00002,0.00007,0.00778,0.00273,0.00833,12.42114,1.20067,0.42073,1.28527
0.3416,0.00009,0.00002,0.00007,0.01043,0.00271,0.00829,12.45143,1.61752,0.42045,1.28482
0.34243,0.00009,0.00002,0.00007,0.01034,0.0027,0.00824,12.48168,1.61159,0.42054,1.28438
0.34326,0.00012,0.00002,0.00007,0.01432,0.0027,0.0082,12.51197,2.24126,0.42289,1.28393
0.3441,0.0001,0.00002,0.00007,0.01207,0.0027,0.00816,12.54226,1.89795,0.42463,1.28349
0.34493,0.00014,0.00002,0.00007,0.01718,0.0027,0.00812,12.57252,2.71546,0.42709,1.28306
0.34576,0.00009,0.00002,0.00007,0.01054,0.00269,0.00808,12.60281,1.67365,0.42714,1.28262
0.34659,0.00009,0.00002,0.00007,0.0108,0.0027,0.00803,12.6331,1.72351,0.43038,1.28218
0.34742,0.00013,0.00002,0.00007,0.01557,0.00269,0.00799,12.66335,2.49636,0.43163,1.28175
0.34825,0.00011,0.00002,0.00007,0.01304,0.00268,0.00795,12.69364,2.10041,0.43226,1.28132
0.34908,0.00009,0.00002,0.00007,0.0111,0.00269,0.00791,12.72393,1.79769,0.43485,1.28088
0.34991,0.00007,0.00002,0.00007,0.00875,0.00269,0.00787,12.75418,1.42398,0.43806,1.28044
0.35074,0.00009,0.00002,0.00007,0.01037,0.00269,0.00783,12.78447,1.69514,0.43943,1.28
0.35157,0.00008,0.00002,0.00006,0.0092,0.00268,0.00779,12.81473,1.51097,0.43976,1.27956
0.3524,0.00013,0.00002,0.00006,0.01547,0.00269,0.00775,12.84502,2.55166,0.44347,1.27912
0.35323,0.00011,0.00002,0.00006,0.0129,0.00269,0.00771,12.87531,2.13781,0.44553,1.27867
0.35406,0.0001,0.00002,0.00006,0.01149,0.00269,0.00767,12.90556,1.91435,0.4477,1.27821
0.35489,0.00011,0.00002,0.00006,0.013,0.00268,0.00764,12.93585,2.17613,0.44891,1.27776
0.35572,0.0001,0.00002,0.00006,0.01153,0.00268,0.0076,12.96614,1.93814,0.45117,1.27729
0.35655,0.00011,0.00002,0.00006,0.01276,0.00268,0.00756,12.99639,2.15485,0.45278,1.27682
0.35739,0.00011,0.00002,0.00006,0.01282,0.00268,0.00752,13.02668,2.17557,0.45469,1.27634
0.35822,0.00011,0.00002,0.00006,0.01307,0.00269,0.00748,13.05697,2.22852,0.45831,1.27585
0.35905,0.00008,0.00002,0.00006,0.01003,0.00268,0.00745,13.08723,1.71821,0.4594,1.27535
0.35988,0.00009,0.00002,0.00006,0.01098,0.00268,0.00741,13.11752,1.89016,0.46104,1.27484
0.36071,0.00008,0.00002,0.00006,0.01012,0.00268,0.00737,13.14781,1.74858,0.46317,1.27433
0.36154,0.00009,0.00002,0.00006,0.01032,0.00268,0.00733,13.17806,1.7915,0.46562,1.2738
0.36237,0.00006,0.00002,0.00006,0.00759,0.00267,0.0073,13.20835,1.32476,0.46611,1.27327
0.3632,0.00004,0.00002,0.00006,0.00462,0.00267,0.00726,13.23864,0.80931,0.4686,1.27273
0.36403,0.00007,0.00002,0.00006,0.00891,0.00267,0.00723,13.26889,1.56802,0.47043,1.27217
0.36486,0.00006,0.00002,0.00006,0.00741,0.00268,0.00719,13.29918,1.31107,0.47392,1.27161
0.36569,0.00013,0.00002,0.00006,0.01577,0.00267,0.00715,13.32947,2.8019,0.47457,1.27104
0.36652,0.0001,0.00002,0.00006,0.01154,0.00268,0.00712,13.35973,2.05927,0.4779,1.27046
0.36735,0.0001,0.00002,0.00006,0.01188,0.00268,0.00708,13.39002,2.13086,0.47974,1.26986
0.36818,0.0001,0.00002,0.00006,0.01166,0.00268,0.00705,13.42031,2.10011,0.48334,1.26926
0.36901,0.00009,0.00002,0.00006,0.01112,0.00268,0.00701,13.45056,2.01185,0.48451,1.26865
0.36984,0.00009,0.00002,0.00006,0.01135,0.00268,0.00698,13.48085,2.06325,0.48676,1.26802
0.37068,0.0001,0.00002,0.00006,0.01159,0.00269,0.00694,13.5111,2.11494,0.4905,1.26738
0.37151,0.0001,0.00002,0.00006,0.01156,0.00275,0.00691,13.54139,2.11959,0.50353,1.26673
0.37234,0.00013,0.00002,0.00006,0.01517,0.0028,0.00687,13.57168,2.7933,0.51569,1.26607
0.37317,0.00009,0.00002,0.00006,0.01083,0.00283,0.00684,13.60194,2.00408,0.52297,1.26539
0.374,0.0001,0.00002,0.00006,0.01222,0.00284,0.00681,13.63223,2.27049,0.5285,1.2647
0.37483,0.0001,0.00002,0.00006,0.01216,0.00287,0.00677,13.66252,2.26977,0.53519,1.264
0.37566,0.0001,0.00002,0.00006,0.01185,0.00288,0.00674,13.69277,2.22251,0.54012,1.26328
0.37649,0.00005,0.00002,0.00006,0.00627,0.00291,0.0067,13.72306,1.17996,0.54855,1.26255
0.37732,0.00009,0.00002,0.00006,0.01121,0.00293,0.00667,13.75335,2.12073,0.55457,1.2618
0.37815,0.00007,0.00002,0.00006,0.00891,0.00286,0.00664,13.7836,1.69302,0.5442,1.26104
0.37898,0.0001,0.00002,0.00005,0.01147,0.00282,0.0066,13.81389,2.18863,0.53892,1.26026
0.37981,0.00011,0.00002,0.00005,0.01317,0.00281,0.00657,13.84418,2.52463,0.53771,1.25946
0.38064,0.00005,0.00002,0.00005,0.0055,0.0028,0.00654,13.87444,1.05924,0.53869,1.25865
0.38147,0.00013,0.00002,0.00005,0.01592,0.0028,0.00651,13.90473,3.07873,0.54168,1.25782
0.38231,0.00008,0.00002,0.00005,0.00925,0.00278,0.00647,13.93502,1.79606,0.53912,1.25696
0.38314,0.0001,0.00002,0.00005,0.01217,0.00277,0.00644,13.96527,2.3727,0.53958,1.25609
0.38397,0.00009,0.00002,0.00005,0.01136,0.00276,0.00641,13.99556,2.22594,0.54022,1.2552
0.3848,0.00007,0.00002,0.00005,0.00816,0.00276,0.00638,14.02585,1.60523,0.5421,1.25429
0.38563,0.00013,0.00002,0.00005,0.016,0.00276,0.00634,14.0561,3.16192,0.54434,1.25335
0.38646,0.00012,0.00002,0.00005,0.01409,0.00275,0.00631,14.08639,2.79636,0.54541,1.2524
0.38729,0.00013,0.00002,0.00005,0.01567,0.00273,0.00628,14.11668,3.12281,0.54463,1.25142
0.38812,0.00007,0.00002,0.00005,0.0088,0.00273,0.00625,14.14694,1.7612,0.5464,1.25042
0.38895,0.00009,0.00002,0.00005,0.0107,0.00273,0.00622,14.17723,2.15036,0.54799,1.2494
0.38978,0.00009,0.00002,0.00005,0.01135,0.00272,0.00618,14.20748,2.29146,0.54938,1.24835
0.39061,0.0001,0.00002,0.00005,0.01215,0.00272,0.00615,14.23777,2.462,0.55213,1.24727
0.39144,0.00006,0.00002,0.00005,0.00681,0.00272,0.00612,14.26806,1.38699,0.55383,1.24618
0.39227,0.00009,0.00002,0.00005,0.01041,0.00272,0.00609,14.29831,2.12749,0.55616,1.24505
0.3931,0.00008,0.00002,0.00005,0.0093,0.00273,0.00606,14.3286,1.91027,0.56003,1.2439
0.39393,0.00007,0.00002,0.00005,0.00877,0.00273,0.00603,14.35889,1.80726,0.56206,1.24272
0.39476,0.00007,0.00002,0.00005,0.00896,0.00274,0.006,14.38915,1.85487,0.56749,1.24152
0.3956,0.00011,0.00002,0.00005,0.01332,0.00274,0.00597,14.41944,2.77053,0.56902,1.24028
0.39643,0.0001,0.00002,0.00005,0.01149,0.00273,0.00593,14.44973,2.39911,0.57055,1.23902
0.39726,0.00012,0.00002,0.00005,0.01461,0.00274,0.0059,14.47998,3.06419,0.57372,1.23773
0.39809,0.00008,0.00002,0.00005,0.00995,0.00274,0.00587,14.51027,2.09484,0.57684,1.2364
0.39892,0.0001,0.00002,0.00005,0.01159,0.00274,0.00584,14.54056,2.44996,0.58032,1.23505
0.39975,0.00008,0.00002,0.00005,0.00908,0.00274,0.00581,14.57081,1.92818,0.58108,1.23366
0.40058,0.00013,0.00002,0.00005,0.01572,0.00275,0.00578,14.6011,3.35135,0.58576,1.23224
0.40141,0.00009,0.00002,0.00005,0.01121,0.00275,0.00575,14.63139,2.39941,0.58845,1.23079
0.40224,0.0001,0.00002,0.00005,0.01226,0.00275,0.00572,14.66165,2.6348,0.591,1.22931
0.40307,0.00007,0.00002,0.00005,0.00876,0.00274,0.00569,14.69194,1.89189,0.59136,1.22779
0.4039,0.00007,0.00002,0.00005,0.00849,0.00275,0.00566,14.72223,1.83954,0.59531,1.22624
0.40473,0.00008,0.00002,0.00005,0.00967,0.00276,0.00563,14.75248,2.10409,0.60023,1.22465
0.40556,0.0001,0.00002,0.00005,0.01189,0.00276,0.0056,14.78277,2.59841,0.6022,1.22303
0.40639,0.00011,0.00002,0.00005,0.0129,0.00275,0.00557,14.81302,2.83038,0.60356,1.22138
0.40722,0.00006,0.00002,0.00005,0.00685,0.00274,0.00554,14.84331,1.50832,0.60442,1.21968
0.40806,0.00006,0.00002,0.00005,0.00678,0.00275,0.00551,14.8736,1.49894,0.6075,1.21795
0.40888,0.00008,0.00002,0.00005,0.01017,0.00275,0.00548,14.90386,2.25921,0.61106,1.21619
0.40972,0.00007,0.00002,0.00005,0.00798,0.00274,0.00544,14.93415,1.78078,0.61083,1.21439
0.41055,0.00005,0.00002,0.00004,0.00554,0.00274,0.00541,14.96444,1.24137,0.61459,1.21254
0.41138,0.00007,0.00002,0.00004,0.00895,0.00274,0.00538,14.99469,2.01209,0.61564,1.21066
0.41221,0.00007,0.00002,0.00004,0.00841,0.00275,0.00535,15.02498,1.89845,0.61992,1.20874
0.41304,0.00007,0.00002,0.00004,0.00873,0.00274,0.00532,15.05527,1.97986,0.62068,1.20678
0.41387,0.0001,0.00002,0.00004,0.01191,0.00274,0.00529,15.08552,2.71066,0.62276,1.20479
0.4147,0.00009,0.00002,0.00004,0.01037,0.00273,0.00526,15.11581,2.37036,0.62314,1.20274
0.41553,0.00008,0.00002,0.00004,0.01022,0.00273,0.00523,15.1461,2.34378,0.62632,1.20066
0.41636,0.00007,0.00002,0.00004,0.00799,0.00273,0.0052,15.17636,1.8401,0.62819,1.19853
0.41719,0.00007,0.00002,0.00004,0.00875,0.00273,0.00517,15.20665,2.02235,0.63178,1.19636
0.41802,0.00009,0.00002,0.00004,0.01101,0.00273,0.00514,15.23694,2.55615,0.6334,1.19414
0.41885,0.0001,0.00002,0.00004,0.01191,0.00275,0.00511,15.26719,2.77592,0.64047,1.19187
0.41968,0.00009,0.00002,0.00004,0.01109,0.00273,0.00508,15.29748,2.59622,0.63977,1.18956
0.42051,0.00009,0.00002,0.00004,0.01123,0.00275,0.00505,15.32777,2.63908,0.64495,1.1872
0.42135,0.0001,0.00002,0.00004,0.01164,0.00275,0.00502,15.35803,2.74518,0.64756,1.18479
0.42218,0.00012,0.00002,0.00004,0.01473,0.00275,0.00499,15.38831,3.48858,0.65157,1.18233
0.42301,0.00005,0.00002,0.00004,0.00558,0.00275,0.00496,15.4186,1.32596,0.65343,1.17981
0.42384,0.00011,0.00002,0.00004,0.0135,0.00275,0.00493,15.44886,3.22109,0.65629,1.17725
0.42467,0.00013,0.00002,0.00004,0.01553,0.00275,0.0049,15.47915,3.72134,0.65904,1.17463
0.4255,0.00007,0.00002,0.00004,0.00835,0.00275,0.00487,15.5094,2.00738,0.66211,1.17196
0.42633,0.00006,0.00002,0.00004,0.00697,0.00276,0.00484,15.53969,1.68345,0.66529,1.16923
0.42716,0.00011,0.00002,0.00004,0.01271,0.00275,0.00481,15.56998,3.08201,0.66593,1.16644
0.42799,0.0001,0.00002,0.00004,0.01162,0.00275,0.00478,15.60024,2.82777,0.67027,1.1636
0.42882,0.0001,0.00002,0.00004,0.01193,0.00276,0.00475,15.63053,2.91484,0.67455,1.1607
0.42965,0.00012,0.00002,0.00004,0.01491,0.00277,0.00472,15.66082,3.65649,0.67953,1.15775
0.43048,0.0001,0.00002,0.00004,0.01164,0.00286,0.00469,15.69107,2.86687,0.70493,1.15473
0.43131,0.00009,0.00002,0.00004,0.01143,0.00292,0.00466,15.72136,2.82438,0.72155,1.15166