File: 2025/starling_2025/figures/experimental_comparison/saxs_scattering/experiment/alpha_syn/mff_out.csv
#File Plotted Below: alpha_syn_clean.dat,,,,,,,,,,
,,,,,,,,,,
    #Fit from 0.01-0.15 with polymer MFF,,,,,,,,,,
#Initial search parameter for I0 = 1670.32,,,,,,,,,,
#Initial search parameter for Rg = 30,,,,,,,,,,
#Initial search parameter for nu = 0.499881,,,,,,,,,,
#BestFit for I0 = 1748.06 +- 4.59322,,,,,,,,,,
#BestFit for I(0)/I0 = 1.00000 +- 0.00263,,,,,,,,,,
#BestFit for Rg = 36.82572 +- 0.09497,,,,,,,,,,
#BestFit for nu = 0.59139 +- 0.00345,,,,,,,,,,
#BestFit reduced chisquared = 1.00969,,,,,,,,,,
#-------------,,,,,,,,,,
#-------------,,,,,,,,,,
,,,,,,,,,,
    #q,I(q),Error,fit,I(q)/I0,Error/I0,fit/I0,qRg,((qRg)^2)I(q)/I0,((qRg)^2)*Error/I0,((qRg)^2)*fit/I0
0.00974,1650.547,49.55999,1674.38,0.94421,0.02835,0.95785,0.3586,0.12142,0.00365,0.12317
0.01084,1667.999,42.03713,1656.83,0.9542,0.02405,0.94781,0.39935,0.15217,0.00384,0.15115
0.01195,1658.033,38.52197,1637.75,0.9485,0.02204,0.93689,0.44009,0.18371,0.00427,0.18146
0.01306,1622.295,33.5801,1617.23,0.92805,0.01921,0.92515,0.48084,0.21458,0.00444,0.21391
0.01416,1570.14,32.12568,1595.37,0.89822,0.01838,0.91265,0.52159,0.24437,0.005,0.24829
0.01527,1590.126,29.39522,1572.27,0.90965,0.01682,0.89944,0.56234,0.28766,0.00532,0.28443
0.01638,1613.667,27.53736,1548.02,0.92312,0.01575,0.88556,0.60309,0.33575,0.00573,0.3221
0.01748,1540.095,26.44447,1522.72,0.88103,0.01513,0.87109,0.64384,0.36522,0.00627,0.36109
0.01859,1548.106,25.16474,1496.45,0.88561,0.0144,0.85606,0.68459,0.41505,0.00675,0.40121
0.0197,1529.724,24.08128,1469.33,0.8751,0.01378,0.84054,0.72534,0.46041,0.00725,0.44223
0.0208,1419.741,23.2714,1441.43,0.81218,0.01331,0.82459,0.76609,0.47666,0.00781,0.48394
0.02191,1418.42,22.55315,1412.86,0.81142,0.0129,0.80824,0.80684,0.52823,0.0084,0.52616
0.02302,1433.181,21.53404,1383.72,0.81987,0.01232,0.79157,0.84759,0.589,0.00885,0.56867
0.02412,1339.153,20.84097,1354.09,0.76608,0.01192,0.77462,0.88834,0.60455,0.00941,0.61129
0.02523,1282.574,20.47038,1324.07,0.73371,0.01171,0.75745,0.92909,0.63334,0.01011,0.65383
0.02634,1256.295,19.76373,1293.76,0.71868,0.01131,0.74011,0.96984,0.67598,0.01063,0.69614
0.02744,1252.087,19.50044,1263.26,0.71627,0.01116,0.72266,1.01059,0.73152,0.01139,0.73804
0.02855,1267.275,19.03436,1232.65,0.72496,0.01089,0.70515,1.05134,0.8013,0.01204,0.77941
0.02966,1172.756,18.56941,1201.99,0.67089,0.01062,0.68761,1.09209,0.80013,0.01267,0.82008
0.03076,1162.273,18.211,1171.35,0.66489,0.01042,0.67008,1.13284,0.85327,0.01337,0.85993
0.03187,1154.307,17.76517,1140.79,0.66033,0.01016,0.6526,1.17358,0.90948,0.014,0.89883
0.03298,1053.59,17.46526,1110.39,0.60272,0.00999,0.63521,1.21433,0.88877,0.01473,0.93668
0.03408,1055.469,17.12774,1080.2,0.60379,0.0098,0.61794,1.25508,0.95112,0.01543,0.9734
0.03519,1063.839,17.06254,1050.28,0.60858,0.00976,0.60083,1.29583,1.02192,0.01639,1.00889
0.03629,1016.18,16.5727,1020.71,0.58132,0.00948,0.58391,1.33658,1.0385,0.01694,1.04312
0.0374,993.4522,16.58801,991.543,0.56832,0.00949,0.56722,1.37733,1.07812,0.018,1.07604
0.03851,981.9625,16.13604,962.846,0.56174,0.00923,0.55081,1.41808,1.12964,0.01856,1.10765
0.03961,932.4332,15.84183,934.687,0.53341,0.00906,0.5347,1.45883,1.13519,0.01929,1.13794
0.04072,909.033,15.76822,907.125,0.52002,0.00902,0.51893,1.49958,1.1694,0.02028,1.16694
0.04183,894.0296,15.3413,880.22,0.51144,0.00878,0.50354,1.54033,1.21345,0.02082,1.1947
0.04293,874.6105,15.32983,853.9796,0.50033,0.00877,0.48853,1.58108,1.25073,0.02192,1.22123
0.04404,839.6545,15.09153,828.411,0.48033,0.00863,0.4739,1.62183,1.26343,0.02271,1.24652
0.04515,804.5699,14.94276,803.512,0.46026,0.00855,0.45966,1.66258,1.27224,0.02363,1.27057
0.04625,801.0235,15.24675,779.287,0.45823,0.00872,0.4458,1.70333,1.32948,0.02531,1.29341
0.04736,761.8036,15.89314,755.734,0.4358,0.00909,0.43233,1.74408,1.32561,0.02766,1.31505
0.04847,751.8555,16.05668,732.859,0.43011,0.00919,0.41924,1.78482,1.37015,0.02926,1.33553
0.04957,697.9139,16.13193,710.66,0.39925,0.00923,0.40654,1.82558,1.33059,0.03076,1.35489
0.05068,642.0242,16.60616,689.141,0.36728,0.0095,0.39423,1.86632,1.27929,0.03309,1.37317
0.05179,687.6011,15.40428,668.302,0.39335,0.00881,0.38231,1.90708,1.43059,0.03205,1.39044
0.05289,644.6704,14.89797,648.146,0.36879,0.00852,0.37078,1.94782,1.3992,0.03233,1.40674
0.054,648.418,14.67068,628.673,0.37093,0.00839,0.35964,1.98857,1.46683,0.03319,1.42217
0.05511,610.9208,14.25896,609.886,0.34948,0.00816,0.34889,2.02932,1.43923,0.03359,1.43679
0.05621,569.4275,14.04165,591.77,0.32575,0.00803,0.33853,2.07007,1.39589,0.03442,1.45066
0.05732,574.1025,13.93272,574.31,0.32842,0.00797,0.32854,2.11082,1.4633,0.03551,1.46383
0.05843,572.7473,13.61254,557.483,0.32765,0.00779,0.31891,2.15157,1.51676,0.03605,1.47634
0.05953,555.0331,13.44276,541.273,0.31751,0.00769,0.30964,2.19232,1.52605,0.03696,1.48822
0.06064,543.0039,13.36665,525.659,0.31063,0.00765,0.30071,2.23307,1.549,0.03813,1.49952
0.06175,512.6528,13.18737,510.624,0.29327,0.00754,0.29211,2.27382,1.51627,0.039,1.51027
0.06285,498.1905,12.97437,496.1488,0.285,0.00742,0.28383,2.31457,1.52678,0.03976,1.52053
0.06396,465.127,12.85364,482.212,0.26608,0.00735,0.27585,2.35532,1.47609,0.04079,1.53031
0.06506,439.5971,12.59409,468.798,0.25148,0.0072,0.26818,2.39607,1.44376,0.04136,1.53966
0.06617,455.305,12.48632,455.884,0.26046,0.00714,0.26079,2.43682,1.54665,0.04242,1.54861
0.06728,461.9074,12.35701,443.455,0.26424,0.00707,0.25368,2.47756,1.62199,0.04339,1.55719
0.06838,430.5735,12.21952,431.489,0.24631,0.00699,0.24684,2.51832,1.56211,0.04433,1.56543
0.06949,428.2677,12.13243,419.97,0.245,0.00694,0.24025,2.55906,1.60443,0.04545,1.57334
0.0706,403.2719,12.03511,408.882,0.2307,0.00688,0.23391,2.59982,1.55928,0.04653,1.58098
0.0717,400.3376,12.02015,398.21,0.22902,0.00688,0.2278,2.64056,1.59684,0.04795,1.58835
0.07281,377.5838,11.84094,387.936,0.216,0.00677,0.22192,2.68131,1.55293,0.0487,1.59551
0.07392,376.6752,11.76686,378.047,0.21548,0.00673,0.21627,2.72206,1.59663,0.04988,1.60245
0.07502,378.6381,11.60704,368.5257,0.2166,0.00664,0.21082,2.76281,1.65337,0.05068,1.60921
0.07613,346.6517,11.52108,359.357,0.19831,0.00659,0.20557,2.80356,1.55868,0.0518,1.61581
0.07724,352.0775,11.51017,350.525,0.20141,0.00658,0.20052,2.84431,1.62943,0.05327,1.62224
0.07834,354.2433,11.32777,342.015,0.20265,0.00648,0.19565,2.88506,1.68676,0.05394,1.62853
0.07945,338.8204,11.37675,333.809,0.19383,0.00651,0.19096,2.92581,1.65922,0.05571,1.63468
0.08056,324.1688,11.16346,325.893,0.18544,0.00639,0.18643,2.96656,1.632,0.0562,1.64068
0.08166,336.2933,11.07908,318.251,0.19238,0.00634,0.18206,3.00731,1.73987,0.05732,1.64653
0.08277,314.55,11.0449,310.87,0.17994,0.00632,0.17784,3.04806,1.67178,0.0587,1.65222
0.08388,317.8828,10.96547,303.738,0.18185,0.00627,0.17376,3.08881,1.73497,0.05985,1.65777
0.08498,301.5448,10.7967,296.85,0.1725,0.00618,0.16982,3.12956,1.68951,0.06049,1.6632
0.08609,291.2955,10.78845,290.194,0.16664,0.00617,0.16601,3.17031,1.67486,0.06203,1.66853
0.0872,278.7422,10.62609,283.7632,0.15946,0.00608,0.16233,3.21106,1.64415,0.06268,1.67376
0.0883,279.9338,10.61543,277.548,0.16014,0.00607,0.15877,3.25181,1.69335,0.06421,1.67892
0.08941,274.6131,10.57111,271.541,0.1571,0.00605,0.15534,3.29255,1.70306,0.06556,1.68401
0.09052,259.8248,10.64589,265.732,0.14864,0.00609,0.15202,3.33331,1.65148,0.06767,1.68903
0.09162,255.2479,10.82889,260.114,0.14602,0.00619,0.1488,3.37405,1.6623,0.07052,1.69399
0.09273,247.976,10.68428,254.677,0.14186,0.00611,0.14569,3.4148,1.65418,0.07127,1.69888
0.09384,243.1659,10.37954,249.412,0.13911,0.00594,0.14268,3.45555,1.66104,0.0709,1.70371
0.09494,241.3013,10.32979,244.312,0.13804,0.00591,0.13976,3.4963,1.68741,0.07224,1.70846
0.09605,236.5674,10.29239,239.367,0.13533,0.00589,0.13693,3.53705,1.69309,0.07366,1.71313
0.09715,230.9113,10.15796,234.573,0.1321,0.00581,0.13419,3.5778,1.69091,0.07438,1.71772
0.09826,228.3425,10.14639,229.9238,0.13063,0.0058,0.13153,3.61855,1.7104,0.076,1.72225
0.09937,228.7211,10.03306,225.416,0.13084,0.00574,0.12895,3.6593,1.75204,0.07685,1.72672
0.10048,213.9087,9.99865,221.041,0.12237,0.00572,0.12645,3.70006,1.67529,0.07831,1.73115
0.10158,213.258,9.91338,216.802,0.122,0.00567,0.12402,3.74079,1.70716,0.07936,1.73554
0.10269,210.8648,9.85817,212.686,0.12063,0.00564,0.12167,3.78156,1.725,0.08065,1.73989
0.10379,197.7876,9.7436,208.694,0.11315,0.00557,0.11939,3.82229,1.65306,0.08143,1.74421
0.1049,203.9371,9.69169,204.816,0.11666,0.00554,0.11717,3.86306,1.74101,0.08274,1.74851
0.10601,208.1408,10.1666,201.053,0.11907,0.00582,0.11501,3.90378,1.81456,0.08863,1.75277
0.10711,182.7661,10.25993,197.394,0.10455,0.00587,0.11292,3.94455,1.6268,0.09132,1.757
0.10822,169.003,10.47074,193.841,0.09668,0.00599,0.11089,3.98528,1.53552,0.09513,1.76119
0.10933,203.8383,10.58204,190.383,0.11661,0.00605,0.10891,4.02605,1.8901,0.09812,1.76534
0.11043,174.008,10.14709,187.019,0.09954,0.0058,0.10699,4.06681,1.64634,0.096,1.76944
0.11154,170.4881,9.96973,183.749,0.09753,0.0057,0.10512,4.10754,1.64551,0.09623,1.7735
0.11265,187.3101,9.7345,180.566,0.10715,0.00557,0.10329,4.14831,1.84393,0.09583,1.77754
0.11375,194.1725,9.72989,177.4709,0.11108,0.00557,0.10152,4.18904,1.94921,0.09767,1.78155
0.11486,180.4106,9.59598,174.457,0.10321,0.00549,0.0998,4.2298,1.84648,0.09821,1.78554
0.11597,175.9509,9.51475,171.526,0.10065,0.00544,0.09812,4.27053,1.83568,0.09927,1.78952
0.11707,162.4836,9.40542,168.671,0.09295,0.00538,0.09649,4.3113,1.7277,0.10001,1.79349
0.11818,163.0604,9.40066,165.8935,0.09328,0.00538,0.0949,4.35203,1.76675,0.10186,1.79744
0.11929,149.5277,9.36424,163.186,0.08554,0.00536,0.09335,4.39279,1.65061,0.10337,1.80139
0.12039,164.5896,9.28623,160.551,0.09416,0.00531,0.09185,4.43352,1.85073,0.10442,1.80532
0.1215,161.7327,9.27771,157.981,0.09252,0.00531,0.09037,4.47429,1.8522,0.10625,1.80924
0.12261,147.9557,9.13217,155.476,0.08464,0.00522,0.08894,4.51505,1.72544,0.1065,1.81314
0.12371,142.3552,9.09403,153.034,0.08144,0.0052,0.08755,4.55578,1.69022,0.10798,1.81701
0.12482,140.0609,9.08306,150.652,0.08012,0.0052,0.08618,4.59655,1.69287,0.10978,1.82087
0.12593,154.6173,8.97273,148.329,0.08845,0.00513,0.08485,4.63728,1.90207,0.11038,1.82472
0.12703,140.7425,8.93216,146.062,0.08051,0.00511,0.08356,4.67805,1.76196,0.11182,1.82856
0.12814,145.4976,8.92371,143.8523,0.08323,0.0051,0.08229,4.71877,1.85335,0.11367,1.83239
0.12925,144.6493,8.8789,141.694,0.08275,0.00508,0.08106,4.75954,1.87452,0.11506,1.83622
0.13035,152.1337,8.78373,139.589,0.08703,0.00502,0.07985,4.80027,2.00539,0.11579,1.84003
0.13146,148.0168,8.78207,137.533,0.08467,0.00502,0.07868,4.84104,1.9844,0.11774,1.84385
0.13256,135.9421,8.70441,135.526,0.07777,0.00498,0.07753,4.88177,1.85332,0.11867,1.84765
0.13367,131.9153,8.63941,133.565,0.07546,0.00494,0.07641,4.92253,1.82858,0.11976,1.85145
0.13478,143.505,8.69587,131.648,0.08209,0.00497,0.07531,4.9633,2.02232,0.12255,1.85523
0.13588,129.2108,8.56572,129.776,0.07392,0.0049,0.07424,5.00403,1.85089,0.1227,1.85899
0.13699,134.596,8.57243,127.945,0.077,0.0049,0.07319,5.04479,1.95957,0.12481,1.86274
0.1381,129.2041,8.52074,126.1549,0.07391,0.00487,0.07217,5.08552,1.91157,0.12606,1.86646
0.1392,106.7675,8.4391,124.403,0.06108,0.00483,0.07117,5.12629,1.60505,0.12687,1.87016
0.14031,128.2331,8.42505,122.691,0.07336,0.00482,0.07019,5.16702,1.9585,0.12868,1.87385
0.14142,127.9617,8.34137,121.014,0.0732,0.00477,0.06923,5.20778,1.98531,0.12942,1.87752
0.14252,106.7618,8.32647,119.375,0.06107,0.00476,0.06829,5.24851,1.68241,0.13121,1.88117
0.14363,125.3317,8.30245,117.77,0.0717,0.00475,0.06737,5.28928,2.00584,0.13287,1.88481
0.14474,117.4267,8.2749,116.198,0.06718,0.00473,0.06647,5.33004,1.90841,0.13448,1.88844
0.14584,110.9839,8.24402,114.661,0.06349,0.00472,0.06559,5.37077,1.83137,0.13604,1.89205
0.14695,97.02151,8.17749,113.154,0.0555,0.00468,0.06473,5.41154,1.62537,0.13699,1.89564
0.14806,127.0686,8.18436,111.679,0.07269,0.00468,0.06389,5.45227,2.1609,0.13918,1.8992
0.14916,126.7736,8.10921,110.233,0.07252,0.00464,0.06306,5.49304,2.18825,0.13997,1.90274
0.15027,106.7475,8.09682,108.816,0.06107,0.00463,0.06225,5.53376,1.87,0.14184,1.90624
0.15138,109.4889,8.04738,107.426,0.06263,0.0046,0.06145,5.57453,1.94639,0.14306,1.90972
0.15248,98.61371,8.0445,106.065,0.05641,0.0046,0.06068,5.61526,1.77877,0.1451,1.91317
0.15359,115.7855,7.997,104.728,0.06624,0.00457,0.05991,5.65603,2.11894,0.14635,1.91659
0.1547,105.2217,7.96624,103.419,0.06019,0.00456,0.05916,5.69676,1.95345,0.14789,1.91998
0.1558,114.4884,7.95137,102.133,0.06549,0.00455,0.05843,5.73752,2.15602,0.14974,1.92335
0.15691,105.3588,7.88664,100.872,0.06027,0.00451,0.05771,5.77829,2.01239,0.15064,1.92669
0.15802,100.5049,7.91061,99.63578,0.05749,0.00453,0.057,5.81902,1.94683,0.15323,1.93
0.15912,96.20647,7.81921,98.42141,0.05504,0.00447,0.0563,5.85978,1.88977,0.15359,1.93328
0.16023,91.83051,7.82184,97.2305,0.05253,0.00447,0.05562,5.90051,1.82898,0.15579,1.93653
0.16134,97.27908,7.77992,96.06021,0.05565,0.00445,0.05495,5.94128,1.96436,0.1571,1.93975
0.16244,96.47588,7.77065,94.91198,0.05519,0.00445,0.0543,5.98201,1.97495,0.15907,1.94293
0.16355,100.4167,7.77498,93.78306,0.05744,0.00445,0.05365,6.02277,2.08373,0.16134,1.94608
0.16465,101.4523,7.99489,92.67498,0.05804,0.00457,0.05302,6.0635,2.13379,0.16815,1.94918
0.16576,88.71267,8.12249,91.58536,0.05075,0.00465,0.05239,6.10427,1.89102,0.17314,1.95225
0.16687,93.66789,8.27431,90.51581,0.05358,0.00473,0.05178,6.145,2.02338,0.17874,1.95529
0.16797,91.23774,8.25258,89.46401,0.05219,0.00472,0.05118,6.18576,1.99712,0.18064,1.95829
0.16908,102.2691,8.10177,88.43059,0.0585,0.00463,0.05059,6.22653,2.26819,0.17969,1.96127
0.17019,92.36746,7.92605,87.41608,0.05284,0.00453,0.05001,6.26726,2.07547,0.1781,1.96422
0.17129,92.25222,7.88061,86.41829,0.05277,0.00451,0.04944,6.30803,2.09994,0.17939,1.96714
0.1724,78.94712,7.80216,85.43864,0.04516,0.00446,0.04888,6.34875,1.82035,0.1799,1.97003
0.17351,97.44196,7.7812,84.47499,0.05574,0.00445,0.04832,6.38952,2.27575,0.18173,1.97291
0.17461,96.47983,7.74676,83.52873,0.05519,0.00443,0.04778,6.43025,2.2821,0.18324,1.97576
0.17572,78.49497,7.68888,82.59778,0.0449,0.0044,0.04725,6.47102,1.88031,0.18418,1.97859
0.17683,78.52908,7.68545,81.68344,0.04492,0.0044,0.04673,6.51175,1.90488,0.18643,1.9814
0.17793,75.77178,7.61756,80.78373,0.04335,0.00436,0.04621,6.55251,1.86108,0.1871,1.98418
0.17904,86.0389,7.61205,79.89918,0.04922,0.00435,0.04571,6.59328,2.13964,0.1893,1.98695
0.18015,66.35747,7.60433,79.03027,0.03796,0.00435,0.04521,6.63401,1.67064,0.19145,1.9897
0.18125,73.93276,7.55394,78.17515,0.04229,0.00432,0.04472,6.67477,1.88431,0.19253,1.99244
0.18236,77.67669,7.54265,77.33506,0.04444,0.00431,0.04424,6.7155,2.00397,0.19459,1.99515
0.18347,78.69436,7.54525,76.50819,0.04502,0.00432,0.04377,6.75627,2.05494,0.19703,1.99786
0.18457,74.69616,7.5667,75.69575,0.04273,0.00433,0.0433,6.797,1.97413,0.19998,2.00054
0.18568,80.15199,7.57684,74.89596,0.04585,0.00433,0.04285,6.83776,2.1438,0.20266,2.00322
0.18679,92.89471,7.56069,74.10999,0.05314,0.00433,0.0424,6.87849,2.51432,0.20464,2.00588
0.18789,78.34621,7.54184,73.33612,0.04482,0.00431,0.04195,6.91926,2.14575,0.20656,2.00854
0.189,66.86613,7.56016,72.57546,0.03825,0.00432,0.04152,6.95999,1.85296,0.2095,2.01117
0.1901,81.62092,7.53396,71.82634,0.04669,0.00431,0.04109,7.00075,2.28841,0.21123,2.0138
0.19121,76.15857,7.5406,71.08916,0.04357,0.00431,0.04067,7.04152,2.1602,0.21389,2.01641
0.19232,70.22455,7.59496,70.36435,0.04017,0.00434,0.04025,7.08225,2.01499,0.21793,2.01901
0.19343,69.38332,7.55796,69.65038,0.03969,0.00432,0.03984,7.12302,2.01384,0.21937,2.02159
0.19453,72.06232,7.56674,68.9483,0.04122,0.00433,0.03944,7.16374,2.11559,0.22214,2.02417
0.19564,80.56928,7.57103,68.25664,0.04609,0.00433,0.03905,7.20451,2.39233,0.22481,2.02673
0.19674,81.52004,7.53208,67.57642,0.04663,0.00431,0.03866,7.24524,2.44801,0.22618,2.02929
0.19785,71.76757,7.57495,66.90619,0.04106,0.00433,0.03827,7.28601,2.17946,0.23004,2.03183
0.19896,86.84965,7.56897,66.24693,0.04968,0.00433,0.0379,7.32674,2.66705,0.23243,2.03437
0.20006,71.20261,7.5679,65.59724,0.04073,0.00433,0.03753,7.3675,2.21095,0.23499,2.03689
0.20117,70.6016,7.56313,64.95807,0.04039,0.00433,0.03716,7.40823,2.21659,0.23745,2.03941
0.20228,66.31449,7.57345,64.32803,0.03794,0.00433,0.0368,7.449,2.10497,0.2404,2.04192
0.20338,70.02021,7.54909,63.7075,0.04006,0.00432,0.03644,7.48976,2.24699,0.24226,2.04442
0.20449,68.63305,7.50275,63.09679,0.03926,0.00429,0.0361,7.53049,2.2265,0.24339,2.0469
0.2056,65.79253,7.57524,62.49463,0.03764,0.00433,0.03575,7.57126,2.15752,0.24841,2.04937
0.2067,64.70211,7.48614,61.90193,0.03701,0.00428,0.03541,7.61199,2.14465,0.24814,2.05184
0.20781,47.57335,7.53513,61.31745,0.02721,0.00431,0.03508,7.65275,1.59383,0.25245,2.05429
0.20892,69.18067,7.55496,60.74209,0.03958,0.00432,0.03475,7.69348,2.34247,0.25581,2.05673
0.21002,60.93198,7.51498,60.17463,0.03486,0.0043,0.03442,7.73425,2.08509,0.25716,2.05917
0.21113,75.1756,7.49244,59.61594,0.04301,0.00429,0.0341,7.77498,2.59967,0.2591,2.06159
0.21224,67.81075,7.46033,59.06484,0.03879,0.00427,0.03379,7.81574,2.36964,0.2607,2.06401
0.21334,68.91692,7.45865,58.52216,0.03942,0.00427,0.03348,7.85647,2.43346,0.26336,2.06642
0.21445,49.78196,7.41777,57.98676,0.02848,0.00424,0.03317,7.89724,1.77609,0.26465,2.06882
0.21556,65.37179,7.47042,57.45895,0.0374,0.00427,0.03287,7.93801,2.35644,0.26928,2.0712
0.21666,67.94518,7.41636,56.93904,0.03887,0.00424,0.03257,7.97873,2.4744,0.27009,2.07358
0.21777,63.42614,7.43345,56.42592,0.03628,0.00425,0.03228,8.0195,2.33349,0.27348,2.07595
0.21888,59.68366,7.42793,55.92039,0.03414,0.00425,0.03199,8.06023,2.21816,0.27606,2.0783
0.21998,49.97109,7.43296,55.42139,0.02859,0.00425,0.0317,8.101,1.87602,0.27905,2.08064
0.22109,51.62585,7.42197,54.92971,0.02953,0.00425,0.03142,8.14173,1.95768,0.28145,2.08297
0.2222,52.07869,7.3878,54.44436,0.02979,0.00423,0.03115,8.18249,1.99468,0.28296,2.08529
0.2233,52.78988,7.67839,53.96607,0.0302,0.00439,0.03087,8.22322,2.0421,0.29703,2.0876
0.22441,48.24205,7.87898,53.49387,0.0276,0.00451,0.0306,8.26399,1.88472,0.30782,2.0899
0.22552,62.60423,7.94812,53.02807,0.03581,0.00455,0.03034,8.30475,2.47002,0.31359,2.09219
0.22662,58.84783,8.09527,52.56897,0.03366,0.00463,0.03007,8.34548,2.34464,0.32253,2.09447
0.22773,67.57427,7.86739,52.11561,0.03866,0.0045,0.02981,8.38625,2.71869,0.31653,2.09675
0.22883,52.6251,7.87712,51.6687,0.0301,0.00451,0.02956,8.42698,2.13786,0.32,2.09901
0.22994,44.8164,7.81434,51.2273,0.02564,0.00447,0.02931,8.46774,1.83829,0.32053,2.10126
0.23105,40.81479,7.84335,50.7921,0.02335,0.00449,0.02906,8.50847,1.6903,0.32482,2.1035
0.23215,56.49391,7.86386,50.36219,0.03232,0.0045,0.02881,8.54924,2.3621,0.3288,2.10573
0.23326,55.64802,7.80191,49.93825,0.03183,0.00446,0.02857,8.58997,2.34896,0.32933,2.10794
0.23437,65.42153,7.85762,49.51942,0.03743,0.0045,0.02833,8.63073,2.78778,0.33483,2.11015
0.23547,63.40837,7.83236,49.10635,0.03627,0.00448,0.02809,8.67146,2.72756,0.33691,2.11235
0.23658,57.37441,7.88287,48.6982,0.03282,0.00451,0.02786,8.71223,2.49126,0.34228,2.11453
0.23769,48.63151,7.87741,48.29524,0.02782,0.00451,0.02763,8.753,2.13144,0.34525,2.1167
0.23879,49.81568,7.87984,47.89774,0.0285,0.00451,0.0274,8.79373,2.20371,0.34858,2.11887
0.2399,45.32604,7.92446,47.50488,0.02593,0.00453,0.02718,8.83449,2.02373,0.35381,2.12102
0.24101,46.73888,7.92109,47.11726,0.02674,0.00453,0.02695,8.87522,2.1061,0.35693,2.12315
0.24211,38.24321,7.87971,46.73409,0.02188,0.00451,0.02673,8.91599,1.73914,0.35834,2.12527
0.24322,44.58291,7.90539,46.35596,0.0255,0.00452,0.02652,8.95672,2.04601,0.3628,2.12738
0.24433,50.16859,7.92847,45.9821,0.0287,0.00454,0.0263,8.99748,2.32336,0.36718,2.12948
0.24543,50.91284,7.91957,45.61307,0.02913,0.00453,0.02609,9.03821,2.37922,0.37009,2.13156
0.24654,57.41655,7.91875,45.24815,0.03285,0.00453,0.02588,9.07898,2.70741,0.3734,2.13362
0.24765,53.14611,7.96345,44.88792,0.0304,0.00456,0.02568,9.11971,2.52857,0.37888,2.13567
0.24875,40.56855,7.90714,44.53167,0.02321,0.00452,0.02547,9.16047,1.94746,0.37957,2.1377
0.24986,58.95384,7.94338,44.17966,0.03373,0.00454,0.02527,9.20124,2.85527,0.38472,2.13972
0.25097,50.21268,7.90461,43.83215,0.02872,0.00452,0.02507,9.24197,2.45349,0.38624,2.14173
0.25207,46.993,7.87405,43.48842,0.02688,0.0045,0.02488,9.28273,2.31647,0.38814,2.14372
0.25318,57.25437,7.91365,43.14905,0.03275,0.00453,0.02468,9.32346,2.84712,0.39353,2.1457
0.25429,39.71587,7.89168,42.81335,0.02272,0.00451,0.02449,9.36423,1.99228,0.39587,2.14766
0.25539,40.30959,7.91801,42.48187,0.02306,0.00453,0.0243,9.40496,2.03969,0.40066,2.14961
0.2565,48.50849,7.90856,42.15393,0.02775,0.00452,0.02411,9.44572,2.47589,0.40366,2.15155
0.2576,39.48745,7.94464,41.83007,0.02259,0.00454,0.02393,9.48645,2.03287,0.409,2.15347
0.25871,40.30078,7.92506,41.50963,0.02305,0.00453,0.02375,9.52722,2.09261,0.41151,2.15538
0.25982,53.95943,7.94941,41.19286,0.03087,0.00455,0.02356,9.56799,2.82586,0.41631,2.15727
0.26092,34.44387,7.92067,40.87998,0.0197,0.00453,0.02339,9.60872,1.81922,0.41835,2.15915
0.26203,29.52857,7.94894,40.57037,0.01689,0.00455,0.02321,9.64948,1.57287,0.42341,2.16102
0.26314,46.19409,7.98117,40.26455,0.02643,0.00457,0.02303,9.69021,2.48139,0.42872,2.16288
0.26424,43.44864,7.90337,39.96189,0.02486,0.00452,0.02286,9.73098,2.35359,0.42812,2.16472
0.26535,54.26985,7.98447,39.66291,0.03105,0.00457,0.02269,9.77171,2.96443,0.43614,2.16655
0.26646,45.93911,8.01597,39.367,0.02628,0.00459,0.02252,9.81247,2.53036,0.44153,2.16836
0.26756,39.62186,7.95982,39.07466,0.02267,0.00455,0.02235,9.8532,2.20055,0.44208,2.17016
0.26867,43.41444,8.04993,38.78529,0.02484,0.00461,0.02219,9.89397,2.43118,0.45079,2.17195
0.26978,59.98918,7.99213,38.49937,0.03432,0.00457,0.02202,9.9347,3.38707,0.45125,2.17373
0.27088,36.03245,7.96559,38.21633,0.02061,0.00456,0.02186,9.97546,2.05117,0.45345,2.17549
0.27199,42.73813,8.06415,37.93637,0.02445,0.00461,0.0217,10.01623,2.45282,0.46282,2.17724
0.2731,57.22974,8.01517,37.6597,0.03274,0.00459,0.02154,10.05696,3.31129,0.46375,2.17898
0.2742,42.87986,8.00451,37.3858,0.02453,0.00458,0.02139,10.09772,2.50117,0.4669,2.1807
0.27531,56.01446,8.01936,37.11511,0.03204,0.00459,0.02123,10.13845,3.29372,0.47155,2.18241
0.27642,47.26486,8.0369,36.84711,0.02704,0.0046,0.02108,10.17922,2.80162,0.47639,2.18411
0.27752,45.98614,7.98027,36.58226,0.02631,0.00457,0.02093,10.21995,2.74768,0.47682,2.1858
0.27863,35.65647,8.06785,36.32005,0.0204,0.00462,0.02078,10.26071,2.14751,0.48591,2.18748
0.27974,42.44898,8.03106,36.06091,0.02428,0.00459,0.02063,10.30144,2.57695,0.48754,2.18915
0.28084,37.12754,8.01376,35.80434,0.02124,0.00458,0.02048,10.34221,2.27178,0.49035,2.19081
0.28195,40.12648,8.49652,35.55078,0.02295,0.00486,0.02034,10.38294,2.47465,0.52399,2.19246
0.28306,28.50395,8.6613,35.29973,0.01631,0.00495,0.02019,10.42371,1.77171,0.53836,2.19411
0.28416,40.06845,8.8692,35.05138,0.02292,0.00507,0.02005,10.46447,2.51003,0.5556,2.19575
0.28527,50.64514,9.12111,34.80594,0.02897,0.00522,0.01991,10.5052,3.19734,0.57584,2.19738
0.28637,42.54014,8.72545,34.56291,0.02434,0.00499,0.01977,10.54597,2.70654,0.55514,2.199
0.28748,44.46403,8.55354,34.3227,0.02544,0.00489,0.01963,10.5867,2.85084,0.54842,2.20062
0.28859,36.22499,8.48131,34.08485,0.02072,0.00485,0.0195,10.62746,2.34051,0.54798,2.20223
0.28969,45.15844,8.39002,33.84973,0.02583,0.0048,0.01936,10.66819,2.94011,0.54624,2.20384
0.2908,47.36009,8.36278,33.61689,0.02709,0.00478,0.01923,10.70896,3.10706,0.54864,2.20544
0.29191,40.83434,8.35676,33.38672,0.02336,0.00478,0.0191,10.74969,2.69935,0.55242,2.20703
0.29301,22.70685,8.28615,33.15875,0.01299,0.00474,0.01897,10.79045,1.51244,0.55192,2.20861
0.29412,34.10381,8.27724,32.93316,0.01951,0.00474,0.01884,10.83122,2.28876,0.5555,2.21019
0.29523,45.36064,8.2971,32.71012,0.02595,0.00475,0.01871,10.87195,3.06716,0.56103,2.21177
0.29633,35.73943,8.21627,32.48918,0.02045,0.0047,0.01859,10.91271,2.43476,0.55974,2.21333
0.29744,53.42282,8.25039,32.2707,0.03056,0.00472,0.01846,10.95344,3.66666,0.56626,2.21489
0.29855,44.1241,8.26901,32.05426,0.02524,0.00473,0.01834,10.99421,3.05103,0.57177,2.21644
0.29965,36.26116,8.20321,31.8402,0.02074,0.00469,0.01821,11.03494,2.52595,0.57143,2.21798
0.30076,58.13421,8.25824,31.62811,0.03326,0.00472,0.01809,11.0757,4.07959,0.57953,2.21952
0.30187,38.08633,8.25973,31.41835,0.02179,0.00473,0.01797,11.11643,2.69242,0.5839,2.22104
0.30297,46.7434,8.21105,31.21049,0.02674,0.0047,0.01785,11.1572,3.32869,0.58473,2.22256
0.30408,45.85501,8.2226,31.00489,0.02623,0.0047,0.01774,11.19793,3.28931,0.58983,2.22407
0.30519,44.99312,8.24755,30.80114,0.02574,0.00472,0.01762,11.2387,3.25103,0.59594,2.22557
0.30629,38.22646,8.21085,30.5994,0.02187,0.0047,0.0175,11.27946,2.78217,0.5976,2.22706
0.3074,39.95748,8.28627,30.39983,0.02286,0.00474,0.01739,11.32019,2.92919,0.60745,2.22854
0.30851,33.51103,8.24625,30.20202,0.01917,0.00472,0.01728,11.36096,2.47434,0.60888,2.23002
0.30961,47.48497,8.21714,30.00631,0.02716,0.0047,0.01717,11.40169,3.53132,0.61108,2.23148
0.31072,40.79047,8.27656,29.81231,0.02333,0.00473,0.01705,11.44245,3.0552,0.61991,2.23294
0.31183,33.17435,8.2113,29.62034,0.01898,0.0047,0.01694,11.48318,2.50247,0.61941,2.23438
0.31293,23.32139,8.23813,29.43003,0.01334,0.00471,0.01684,11.52395,1.77174,0.62586,2.23581
0.31404,33.44245,8.20454,29.24169,0.01913,0.00469,0.01673,11.56468,2.55863,0.62772,2.23724
0.31515,32.87915,8.27036,29.05496,0.01881,0.00473,0.01662,11.60544,2.5333,0.63722,2.23865
0.31625,29.55136,8.20497,28.87015,0.01691,0.00469,0.01652,11.64617,2.29291,0.63663,2.24005
0.31736,20.86779,8.24845,28.6869,0.01194,0.00472,0.01641,11.68694,1.6305,0.64449,2.24144
0.31846,32.59252,8.23036,28.50536,0.01864,0.00471,0.01631,11.7277,2.5644,0.64757,2.24282
0.31957,37.53759,8.16911,28.32566,0.02147,0.00467,0.0162,11.76843,2.97404,0.64722,2.24419
0.32068,37.94318,8.19429,28.14746,0.02171,0.00469,0.0161,11.8092,3.02703,0.65372,2.24555
0.32178,35.24029,8.17498,27.97106,0.02016,0.00468,0.016,11.84993,2.83083,0.65669,2.2469
0.32289,33.06755,8.15579,27.7961,0.01892,0.00467,0.0159,11.89069,2.6746,0.65966,2.24823
0.324,39.04373,8.17428,27.62289,0.02234,0.00468,0.0158,11.93142,3.17964,0.6657,2.24955
0.3251,34.79502,8.14728,27.45109,0.0199,0.00466,0.0157,11.97219,2.85303,0.66804,2.25086
0.32621,27.78842,8.17716,27.28097,0.0159,0.00468,0.01561,12.01292,2.29405,0.67506,2.25216
0.32732,22.88929,8.17745,27.11224,0.01309,0.00468,0.01551,12.05369,1.90246,0.67967,2.25345
0.32842,30.34328,8.19327,26.94504,0.01736,0.00469,0.01541,12.09445,2.53909,0.6856,2.25473
0.32953,27.38372,8.17927,26.77954,0.01567,0.00468,0.01532,12.13518,2.30689,0.68905,2.25599
0.33064,29.16018,8.1612,26.61545,0.01668,0.00467,0.01523,12.17595,2.47308,0.69215,2.25726
0.33174,27.66961,8.18387,26.45309,0.01583,0.00468,0.01513,12.21668,2.36239,0.69873,2.25853
0.33285,27.09577,8.14548,26.29218,0.0155,0.00466,0.01504,12.25744,2.32886,0.7001,2.25979
0.33396,22.38319,8.17047,26.133,0.0128,0.00467,0.01495,12.29817,1.93663,0.70692,2.26106
0.33506,41.73674,8.12619,25.9753,0.02388,0.00465,0.01486,12.33894,3.6351,0.70776,2.26234
0.33617,31.52404,8.15149,25.81937,0.01803,0.00466,0.01477,12.37967,2.76377,0.71466,2.26363
0.33728,40.63183,8.0874,25.66494,0.02324,0.00463,0.01468,12.42043,3.58577,0.71371,2.26494
0.33838,23.05255,8.10371,25.5123,0.01319,0.00464,0.01459,12.46116,2.04776,0.71985,2.26626
0.33949,25.01163,8.10857,25.36119,0.01431,0.00464,0.01451,12.50193,2.23634,0.725,2.2676
0.3406,42.95663,8.66013,25.21175,0.02457,0.00495,0.01442,12.54269,3.86593,0.77938,2.26896
0.3417,41.08078,8.92434,25.06411,0.0235,0.00511,0.01434,12.58342,3.72116,0.80838,2.27035
0.34281,32.95304,9.0955,24.91798,0.01885,0.0052,0.01425,12.62419,3.00431,0.82923,2.27176
0.34392,27.56273,9.38987,24.77362,0.01577,0.00537,0.01417,12.66492,2.52912,0.8616,2.2732
0.34502,25.44877,8.92866,24.63075,0.01456,0.00511,0.01409,12.70568,2.3502,0.82457,2.27466
0.34613,32.45418,8.82424,24.4896,0.01857,0.00505,0.01401,12.74641,3.0164,0.82015,2.27615
0.34724,36.22933,8.7207,24.34992,0.02073,0.00499,0.01393,12.78718,3.38885,0.81572,2.27766
0.34834,25.68811,8.65351,24.21194,0.0147,0.00495,0.01385,12.82791,2.41817,0.8146,2.27921
0.34945,26.46893,8.62502,24.07538,0.01514,0.00493,0.01377,12.86868,2.50753,0.81709,2.28078
0.35055,36.48307,8.59356,23.9405,0.02087,0.00492,0.0137,12.9094,3.47813,0.81927,2.28238
0.35166,45.62042,8.53387,23.80702,0.0261,0.00488,0.01362,12.95017,4.37676,0.81873,2.28401
0.35277,25.2613,8.49908,23.67505,0.01445,0.00486,0.01354,12.99094,2.43882,0.82053,2.28567
0.35387,37.51851,8.46167,23.5447,0.02146,0.00484,0.01347,13.03167,3.64492,0.82205,2.28737
0.35498,40.01511,8.47323,23.41573,0.02289,0.00485,0.0134,13.07243,3.91182,0.82833,2.28909
0.35609,35.41981,8.46603,23.28836,0.02026,0.00484,0.01332,13.11316,3.4842,0.83279,2.29085
0.35719,31.03498,8.46851,23.16236,0.01775,0.00484,0.01325,13.15393,3.07188,0.83822,2.29264
0.3583,30.47383,8.49906,23.03795,0.01743,0.00486,0.01318,13.19466,3.03505,0.84647,2.29447
0.35941,26.15009,8.46312,22.91492,0.01496,0.00484,0.01311,13.23542,2.62054,0.8481,2.29634
0.36051,26.64129,8.48794,22.79347,0.01524,0.00486,0.01304,13.27615,2.68622,0.85583,2.29825
0.36162,28.28371,8.42334,22.67338,0.01618,0.00482,0.01297,13.31692,2.86937,0.85454,2.3002
0.36273,20.3306,8.43071,22.55477,0.01163,0.00482,0.0129,13.35768,2.07518,0.86054,2.3022
0.36383,40.37682,8.38823,22.43773,0.0231,0.0048,0.01284,13.39841,4.1465,0.86143,2.30424
0.36494,34.35268,8.38532,22.32204,0.01965,0.0048,0.01277,13.43918,3.54935,0.86638,2.30633
0.36605,41.55241,8.38639,22.20793,0.02377,0.0048,0.0127,13.47991,4.31929,0.87175,2.30847
0.36715,35.94586,8.35483,22.09517,0.02056,0.00478,0.01264,13.52067,3.75914,0.87373,2.31066
0.36826,23.46068,8.37473,21.98397,0.01342,0.00479,0.01258,13.5614,2.46827,0.88109,2.31291
0.36937,27.94251,8.37018,21.87413,0.01598,0.00479,0.01251,13.60217,2.9575,0.88592,2.31521
0.37047,16.90759,8.36315,21.76588,0.00967,0.00478,0.01245,13.6429,1.80027,0.89048,2.31757
0.37158,12.50618,8.33026,21.659,0.00715,0.00477,0.01239,13.68367,1.33959,0.89229,2.31999
0.37269,23.29949,8.35464,21.55371,0.01333,0.00478,0.01233,13.72439,2.51059,0.90024,2.32247
0.37379,22.47305,8.31433,21.44982,0.01286,0.00476,0.01227,13.76516,2.43594,0.90122,2.32503
0.3749,35.84136,8.32766,21.34744,0.0205,0.00476,0.01221,13.80593,3.90803,0.90802,2.32766
0.37601,24.06445,8.33123,21.24665,0.01377,0.00477,0.01215,13.84666,2.63942,0.91378,2.33036
0.37711,25.18628,8.35949,21.1473,0.01441,0.00478,0.0121,13.88742,2.77875,0.92229,2.33314
0.37822,31.64672,8.37075,21.04955,0.0181,0.00479,0.01204,13.92815,3.51203,0.92895,2.336
0.37933,29.10796,8.34194,20.95326,0.01665,0.00477,0.01199,13.96892,3.24923,0.93118,2.33894
0.38043,23.5993,8.34924,20.85858,0.0135,0.00478,0.01193,14.00965,2.6497,0.93744,2.34197
0.38154,24.61058,8.33961,20.76537,0.01408,0.00477,0.01188,14.05041,2.77935,0.94182,2.34509
0.38264,27.36399,8.35018,20.6738,0.01565,0.00478,0.01183,14.09114,3.10824,0.94849,2.34831
0.38375,45.64712,8.33809,20.58372,0.02611,0.00477,0.01178,14.13191,5.21504,0.9526,2.35162
0.38486,12.32221,8.36273,20.49529,0.00705,0.00478,0.01172,14.17264,1.4159,0.96093,2.35504
0.38596,25.97616,8.31133,20.40838,0.01486,0.00475,0.01167,14.2134,3.00202,0.96053,2.35856
0.38707,37.4843,8.32537,20.32306,0.02144,0.00476,0.01163,14.25417,4.35688,0.96768,2.36219
0.38818,29.97215,8.27795,20.23943,0.01715,0.00474,0.01158,14.2949,3.50367,0.96767,2.36594
0.38928,15.68805,8.26195,20.15735,0.00897,0.00473,0.01153,14.33566,1.84437,0.97132,2.3698
0.39039,26.74105,8.24049,20.07697,0.0153,0.00471,0.01149,14.37639,3.1617,0.97431,2.37378
0.3915,17.79355,8.30585,19.99817,0.01018,0.00475,0.01144,14.41716,2.11575,0.98761,2.37789
0.3926,16.30386,8.23411,19.92108,0.00933,0.00471,0.0114,14.45789,1.94959,0.98462,2.38213
0.39371,25.13461,8.24661,19.84559,0.01438,0.00472,0.01135,14.49866,3.02253,0.99168,2.3865
0.39482,24.48489,8.26421,19.77184,0.01401,0.00473,0.01131,14.53938,2.96096,0.99939,2.39101
0.39592,17.82548,8.23019,19.6997,0.0102,0.00471,0.01127,14.58015,2.16774,1.00087,2.39567
0.39703,11.15505,8.26677,19.6293,0.00638,0.00473,0.01123,14.62088,1.36415,1.01094,2.40046
0.39814,10.70235,8.25985,19.56051,0.00612,0.00473,0.01119,14.66165,1.31609,1.01573,2.4054
0.39924,24.37066,8.91416,19.4934,0.01394,0.0051,0.01115,14.70241,3.01361,1.1023,2.4105
0.40035,23.30906,9.18097,19.42803,0.01333,0.00525,0.01111,14.74314,2.89833,1.14159,2.41575
0.40146,26.76449,9.49999,19.36428,0.01531,0.00543,0.01108,14.78391,3.34642,1.1878,2.42115
0.40256,11.98473,9.70636,19.30226,0.00686,0.00555,0.01104,14.82464,1.50674,1.2203,2.42672
0.40367,28.08255,9.23705,19.24187,0.01606,0.00528,0.01101,14.8654,3.55003,1.16769,2.43245
0.40477,38.97713,9.01583,19.18322,0.0223,0.00516,0.01097,14.90613,4.9543,1.14598,2.43834
0.40588,26.09148,8.9731,19.12619,0.01493,0.00513,0.01094,14.9469,3.3346,1.1468,2.4444
0.40699,29.36053,8.88551,19.0709,0.0168,0.00508,0.01091,14.98763,3.77287,1.1418,2.45064
0.40809,23.00864,8.79495,19.01724,0.01316,0.00503,0.01088,15.02839,2.97275,1.13632,2.45706
0.4092,34.10982,8.72097,18.96527,0.01951,0.00499,0.01085,15.06916,4.43098,1.13288,2.46365
0.41031,24.89337,8.63975,18.91504,0.01424,0.00494,0.01082,15.10989,3.25124,1.12841,2.47043
0.41142,24.54071,8.61278,18.86646,0.01404,0.00493,0.01079,15.15066,3.2225,1.13096,2.4774
0.41252,31.5962,8.53725,18.81962,0.01807,0.00488,0.01077,15.19138,4.17131,1.12708,2.48455
0.41363,19.18387,8.55131,18.77444,0.01097,0.00489,0.01074,15.23215,2.54625,1.135,2.49191
0.41473,34.06909,8.50276,18.73101,0.01949,0.00486,0.01072,15.27288,4.54616,1.1346,2.49946
0.41584,23.45324,8.50868,18.68926,0.01342,0.00487,0.01069,15.31365,3.14632,1.14146,2.50722
0.41695,41.94199,8.52296,18.64926,0.02399,0.00488,0.01067,15.35437,5.6566,1.14947,2.51518
0.41805,4.24167,8.55865,18.61094,0.00243,0.0049,0.01065,15.39514,0.5751,1.16042,2.52335
0.41916,33.62448,8.5094,18.57439,0.01924,0.00487,0.01063,15.43587,4.58311,1.15986,2.53174
0.42027,31.88865,8.52833,18.53953,0.01824,0.00488,0.01061,15.47664,4.3695,1.16858,2.54035
0.42137,30.98761,8.48947,18.5064,0.01773,0.00486,0.01059,15.5174,4.26843,1.16939,2.54919
0.42248,25.57864,8.49225,18.47505,0.01463,0.00486,0.01057,15.55813,3.54189,1.17593,2.55825
0.42359,26.5003,8.49567,18.44542,0.01516,0.00486,0.01055,15.5989,3.68877,1.18257,2.56755
0.42469,23.46446,8.50187,18.41757,0.01342,0.00486,0.01054,15.63963,3.28326,1.18962,2.57708
0.4258,22.62803,8.47627,18.39147,0.01294,0.00485,0.01052,15.68039,3.18275,1.19223,2.58686
0.42691,32.11541,8.44379,18.36716,0.01837,0.00483,0.01051,15.72112,4.5407,1.19384,2.59688
0.42801,11.60022,8.47084,18.34463,0.00664,0.00485,0.01049,15.76189,1.64864,1.20389,2.60716
0.42912,20.54957,8.43803,18.32391,0.01176,0.00483,0.01048,15.80262,2.93564,1.20543,2.61769
0.43023,25.51934,8.42928,18.30498,0.0146,0.00482,0.01047,15.84338,3.66444,1.2104,2.6285
0.43133,30.90186,8.44159,18.28788,0.01768,0.00483,0.01046,15.88411,4.46019,1.21841,2.63956
0.43244,36.27059,8.42947,18.27259,0.02075,0.00482,0.01045,15.92488,5.26198,1.22291,2.65091
0.43355,16.57758,8.3962,18.25913,0.00948,0.0048,0.01045,15.96565,2.41733,1.22433,2.66254
0.43465,17.8308,8.38279,18.24754,0.0102,0.0048,0.01044,16.00637,2.61336,1.22862,2.67444
0.43576,31.1697,8.41705,18.23778,0.01783,0.00482,0.01043,16.04714,4.59167,1.23993,2.68664
0.43687,28.76932,8.38579,18.2299,0.01646,0.0048,0.01043,16.08787,4.2596,1.24161,2.69913
0.43797,9.92536,8.40603,18.22389,0.00568,0.00481,0.01043,16.12864,1.47701,1.25092,2.71193
0.43908,26.53102,8.37577,18.21976,0.01518,0.00479,0.01042,16.16937,3.9681,1.25272,2.72503
0.44018,12.24637,8.35018,18.21753,0.00701,0.00478,0.01042,16.21013,1.84087,1.2552,2.73845
0.44129,19.89056,8.30761,18.2172,0.01138,0.00475,0.01042,16.25086,3.00498,1.25508,2.75218
0.4424,16.83489,8.33115,18.21879,0.00963,0.00477,0.01042,16.29163,2.55612,1.26496,2.76625
0.44351,29.6736,8.33017,18.22231,0.01698,0.00477,0.01042,16.33239,4.52806,1.27115,2.78065
0.44461,11.25787,8.31953,18.22776,0.00644,0.00476,0.01043,16.37312,1.72648,1.27586,2.79537
0.44572,12.35172,8.28258,18.23517,0.00707,0.00474,0.01043,16.41389,1.90368,1.27653,2.81045
0.44682,18.58482,8.30059,18.24452,0.01063,0.00475,0.01044,16.45462,2.87857,1.28566,2.82586
0.44793,33.56529,8.32778,18.25585,0.0192,0.00476,0.01044,16.49538,5.22466,1.29627,2.84164
0.44904,31.05881,8.29854,18.26914,0.01777,0.00475,0.01045,16.53611,4.85841,1.29811,2.85777
0.45014,26.0027,8.31011,18.28445,0.01488,0.00475,0.01046,16.57688,4.08758,1.30634,2.87428
0.45125,36.77884,8.31102,18.30174,0.02104,0.00475,0.01047,16.61761,5.81002,1.31291,2.89116
0.45236,29.011,8.2928,18.32108,0.0166,0.00474,0.01048,16.65837,4.60543,1.31646,2.90843
0.45346,21.78538,8.25499,18.34244,0.01246,0.00472,0.01049,16.6991,3.47531,1.31688,2.92608
0.45457,27.38637,8.30357,18.36588,0.01567,0.00475,0.01051,16.73987,4.39017,1.3311,2.94414
0.45568,22.62761,8.26674,18.3914,0.01294,0.00473,0.01052,16.78064,3.645,1.33166,2.96261
0.45678,17.76113,8.2971,18.41898,0.01016,0.00475,0.01054,16.82136,2.87498,1.34305,2.98147
0.45789,22.1984,8.97694,18.44869,0.0127,0.00514,0.01055,16.86213,3.61068,1.46014,3.00077
0.459,17.04059,9.33776,18.48049,0.00975,0.00534,0.01057,16.90286,2.78514,1.52618,3.02048
0.4601,13.90262,9.58578,18.51446,0.00795,0.00548,0.01059,16.94363,2.28324,1.57428,3.04065
0.46121,25.35504,9.89588,18.55056,0.0145,0.00566,0.01061,16.98436,4.18413,1.63303,3.06124
0.46232,9.94799,10.09722,18.58886,0.00569,0.00578,0.01063,17.02512,1.64952,1.67427,3.0823
0.46342,25.9214,10.35441,18.6293,0.01483,0.00592,0.01066,17.06585,4.31874,1.72514,3.10381
0.46453,30.35275,10.60084,18.67195,0.01736,0.00606,0.01068,17.10662,5.08123,1.77464,3.1258
0.46564,32.98035,10.89137,18.71676,0.01887,0.00623,0.01071,17.14735,5.54743,1.83197,3.14823
0.46674,48.51395,11.11042,18.7638,0.02775,0.00636,0.01073,17.18811,8.19909,1.87771,3.17117
0.46785,20.87931,11.32584,18.81303,0.01194,0.00648,0.01076,17.22888,3.54546,1.92321,3.19459
0.46896,26.68206,11.67378,18.86442,0.01526,0.00668,0.01079,17.26961,4.55226,1.99168,3.21848
0.47006,1.64278,11.91449,18.91806,0.00094,0.00682,0.01082,17.31037,0.2816,2.04235,3.24289
0.47117,22.8416,12.14029,18.97385,0.01307,0.00694,0.01085,17.3511,3.9339,2.09086,3.26777
0.47228,3.95003,12.41109,19.0319,0.00226,0.0071,0.01089,17.39187,0.6835,2.14756,3.29319
0.47338,21.89395,12.78304,19.09211,0.01252,0.00731,0.01092,17.4326,3.80619,2.22229,3.3191
0.47449,9.02445,13.0537,19.1546,0.00516,0.00747,0.01096,17.47336,1.57622,2.27997,3.34556
0.47559,19.0291,13.44156,19.21924,0.01089,0.00769,0.01099,17.51409,3.33915,2.35867,3.37252
0.4767,4.00057,13.87881,19.28618,0.00229,0.00794,0.01103,17.55486,0.70528,2.44675,3.40004
0.47781,-2.66599,14.27043,19.35536,-0.00153,0.00816,0.01107,17.59563,-0.47218,2.52749,3.4281
0.47891,1.13087,14.82296,19.42672,0.00065,0.00848,0.01111,17.63635,0.20122,2.63752,3.45668
0.48002,30.53662,15.31461,19.50042,0.01747,0.00876,0.01116,17.67712,5.45867,2.73761,3.48586
0.48113,50.26096,15.84559,19.57632,0.02875,0.00906,0.0112,17.71785,9.026,2.84559,3.51557
0.48223,36.96662,16.28908,19.65458,0.02115,0.00932,0.01124,17.75862,6.66915,2.93871,3.54588
0.48334,23.63861,16.87844,19.73507,0.01352,0.00966,0.01129,17.79935,4.28423,3.05902,3.57676
0.48445,28.71849,17.44166,19.81795,0.01643,0.00998,0.01134,17.84011,5.22877,3.1756,3.60825
0.48555,-2.09562,18.2368,19.90308,-0.0012,0.01043,0.01139,17.88084,-0.38329,3.33555,3.64031
0.48666,25.79185,18.98065,19.99061,0.01475,0.01086,0.01144,17.92161,4.73891,3.48745,3.67301
0.48777,5.01838,19.84678,20.08042,0.00287,0.01135,0.01149,17.96234,0.92626,3.66318,3.7063
0.48887,30.60428,20.7484,20.17267,0.01751,0.01187,0.01154,18.0031,5.67439,3.847,3.74025
0.48998,15.64156,21.87054,20.2673,0.00895,0.01251,0.01159,18.04387,2.91328,4.07344,3.77483
0.49109,22.49975,23.01162,20.36422,0.01287,0.01316,0.01165,18.0846,4.20957,4.30534,3.81003
0.49219,10.94584,23.81629,20.46361,0.00626,0.01362,0.01171,18.12536,2.05715,4.476,3.8459
0.4933,6.09302,24.36477,20.56532,0.00349,0.01394,0.01176,18.16609,1.15027,4.59968,3.88241
0.49441,35.44023,25.40378,20.66952,0.02027,0.01453,0.01182,18.20686,6.72062,4.81738,3.91961
0.49551,26.39968,26.77636,20.77603,0.0151,0.01532,0.01189,18.24759,5.02866,5.10041,3.95746
0.49662,16.60118,27.9198,20.88507,0.0095,0.01597,0.01195,18.28835,3.17637,5.342,3.99602
0.49772,-19.37568,29.93378,20.99643,-0.01108,0.01712,0.01201,18.32908,-3.72375,5.75288,4.03524
0.49883,-15.18885,31.51521,21.11033,-0.00869,0.01803,0.01208,18.36985,-2.9321,6.08379,4.0752
0.49994,69.70514,33.79811,21.22657,0.03988,0.01933,0.01214,18.41058,13.51581,6.55345,4.11583