File: 2025/starling_2025/figures/experimental_comparison/saxs_scattering/experiment/gon7/mff_out.csv
#File Plotted Below: gon7.dat,,,,,,,,,,
,,,,,,,,,,
    #Fit from 0.01-0.15 with polymer MFF,,,,,,,,,,
#Initial search parameter for I0 = 0.0188026,,,,,,,,,,
#Initial search parameter for Rg = 30,,,,,,,,,,
#Initial search parameter for nu = 0.499881,,,,,,,,,,
#BestFit for I0 = 0.01961 +- 0.00002,,,,,,,,,,
#BestFit for I(0)/I0 = 1.00000 +- 0.00115,,,,,,,,,,
#BestFit for Rg = 30.65317 +- 0.04189,,,,,,,,,,
#BestFit for nu = 0.50695 +- 0.00229,,,,,,,,,,
#BestFit reduced chisquared = 0.87241,,,,,,,,,,
#-------------,,,,,,,,,,
#-------------,,,,,,,,,,
,,,,,,,,,,
    #q,I(q),Error,fit,I(q)/I0,Error/I0,fit/I0,qRg,((qRg)^2)I(q)/I0,((qRg)^2)*Error/I0,((qRg)^2)*fit/I0
0.00958,0.01911,0.00019,0.01905,0.97476,0.00991,0.97146,0.29366,0.08406,0.00086,0.08378
0.01071,0.01941,0.00017,0.01891,0.98961,0.00844,0.96418,0.32821,0.1066,0.00091,0.10386
0.01183,0.01898,0.00015,0.01875,0.96805,0.00749,0.9562,0.36276,0.12739,0.00099,0.12583
0.01296,0.01866,0.00013,0.01858,0.9514,0.00685,0.94754,0.3973,0.15018,0.00108,0.14957
0.01409,0.01863,0.00013,0.0184,0.95011,0.00643,0.93825,0.43185,0.17719,0.0012,0.17498
0.01522,0.01833,0.00012,0.0182,0.93457,0.0061,0.92835,0.4664,0.2033,0.00133,0.20194
0.01634,0.01824,0.00011,0.018,0.93013,0.00585,0.91789,0.50095,0.23341,0.00147,0.23034
0.01747,0.01803,0.00011,0.01778,0.9196,0.00564,0.9069,0.5355,0.2637,0.00162,0.26006
0.0186,0.01762,0.00011,0.01756,0.89864,0.00546,0.89541,0.57004,0.29201,0.00177,0.29096
0.01972,0.01746,0.0001,0.01732,0.89039,0.00533,0.88346,0.60459,0.32547,0.00195,0.32293
0.02085,0.01714,0.0001,0.01708,0.87409,0.00522,0.87108,0.63914,0.35706,0.00213,0.35583
0.02198,0.01701,0.0001,0.01683,0.86728,0.00514,0.8583,0.67369,0.39362,0.00233,0.38955
0.0231,0.01666,0.0001,0.01657,0.84969,0.00504,0.84517,0.70823,0.4262,0.00253,0.42394
0.02423,0.01621,0.0001,0.01631,0.82664,0.00495,0.83172,0.74278,0.45608,0.00273,0.45888
0.02536,0.01595,0.0001,0.01604,0.81342,0.00488,0.81797,0.77733,0.4915,0.00295,0.49425
0.02649,0.01573,0.00009,0.01577,0.80209,0.00483,0.80398,0.81188,0.52869,0.00318,0.52994
0.02761,0.01542,0.00009,0.01549,0.78622,0.00477,0.78976,0.84643,0.56328,0.00342,0.56581
0.02874,0.01519,0.00009,0.0152,0.77447,0.00473,0.77535,0.88097,0.60107,0.00367,0.60176
0.02987,0.01474,0.00009,0.01492,0.75145,0.00467,0.7608,0.91552,0.62985,0.00392,0.63768
0.03099,0.01456,0.00009,0.01463,0.74265,0.00463,0.74613,0.95007,0.67034,0.00418,0.67348
0.03212,0.01428,0.00009,0.01434,0.728,0.00458,0.73138,0.98461,0.70577,0.00444,0.70905
0.03325,0.01388,0.00009,0.01405,0.70792,0.00455,0.71658,1.01916,0.73531,0.00472,0.74431
0.03438,0.0136,0.00009,0.01376,0.69331,0.00452,0.70177,1.05371,0.76979,0.00502,0.77917
0.0355,0.01339,0.00009,0.01347,0.68259,0.00449,0.68695,1.08826,0.80839,0.00532,0.81355
0.03663,0.01307,0.00009,0.01318,0.66636,0.00445,0.67216,1.1228,0.84007,0.00561,0.84738
0.03776,0.01283,0.00009,0.01289,0.65446,0.00442,0.6574,1.15735,0.87662,0.00593,0.88056
0.03888,0.01258,0.00009,0.0126,0.64163,0.00439,0.64271,1.1919,0.91151,0.00624,0.91305
0.04001,0.01215,0.00009,0.01232,0.61956,0.00437,0.62811,1.22644,0.93191,0.00657,0.94477
0.04114,0.01191,0.00009,0.01203,0.60729,0.00435,0.6136,1.26099,0.96565,0.00692,0.97569
0.04226,0.01156,0.00008,0.01175,0.58963,0.00433,0.59922,1.29554,0.98964,0.00726,1.00575
0.04339,0.01137,0.00008,0.01147,0.57971,0.0043,0.58499,1.33008,1.02558,0.00762,1.03491
0.04452,0.01111,0.00008,0.0112,0.56677,0.00428,0.57092,1.36463,1.05544,0.00797,1.06317
0.04565,0.01089,0.00008,0.01092,0.55535,0.00426,0.55703,1.39917,1.08719,0.00834,1.09049
0.04677,0.01053,0.00008,0.01065,0.53684,0.00425,0.54335,1.43372,1.1035,0.00873,1.11689
0.0479,0.01024,0.00008,0.01039,0.52198,0.00423,0.5299,1.46827,1.12528,0.00912,1.14235
0.04903,0.01013,0.00008,0.01013,0.51636,0.00422,0.51669,1.50281,1.16617,0.00952,1.16691
0.05015,0.00977,0.00008,0.00988,0.49827,0.00419,0.50374,1.53736,1.17765,0.00991,1.19058
0.05128,0.00962,0.00008,0.00963,0.49035,0.00418,0.49106,1.5719,1.21159,0.01033,1.21335
0.05241,0.00932,0.00008,0.00939,0.47533,0.00416,0.47864,1.60645,1.22666,0.01075,1.23523
0.05353,0.00919,0.00008,0.00915,0.4685,0.00415,0.46649,1.64099,1.26162,0.01119,1.2562
0.05466,0.00888,0.00008,0.00891,0.45279,0.00414,0.45461,1.67554,1.27117,0.01163,1.27628
0.05579,0.00865,0.00008,0.00869,0.44086,0.00413,0.44298,1.71008,1.28926,0.01207,1.29546
0.05692,0.00847,0.00008,0.00846,0.43201,0.00412,0.43163,1.74463,1.31493,0.01253,1.31375
0.05804,0.00822,0.00008,0.00825,0.41929,0.0041,0.42053,1.77917,1.32724,0.01299,1.33118
0.05917,0.008,0.00008,0.00803,0.40801,0.00409,0.4097,1.81372,1.34219,0.01346,1.34774
0.0603,0.00784,0.00008,0.00783,0.39976,0.00408,0.39913,1.84826,1.36559,0.01395,1.36347
0.06142,0.00764,0.00008,0.00762,0.3897,0.00408,0.38883,1.88281,1.38148,0.01445,1.37839
0.06255,0.00744,0.00008,0.00743,0.37921,0.00406,0.37879,1.91735,1.39408,0.01494,1.39251
0.06368,0.00726,0.00008,0.00724,0.37031,0.00405,0.36901,1.95189,1.41084,0.01544,1.40589
0.0648,0.00712,0.00008,0.00705,0.36323,0.00404,0.35949,1.98644,1.43329,0.01596,1.41854
0.06593,0.00695,0.00008,0.00687,0.35455,0.00404,0.35024,2.02098,1.4481,0.01649,1.4305
0.06706,0.00683,0.00008,0.00669,0.34829,0.00403,0.34124,2.05553,1.47159,0.01703,1.44181
0.06818,0.00664,0.00008,0.00652,0.33844,0.00402,0.3325,2.09007,1.47846,0.01758,1.45249
0.06931,0.00647,0.00008,0.00635,0.32978,0.00401,0.32401,2.12461,1.48863,0.01812,1.46255
0.07044,0.00622,0.00008,0.00619,0.31731,0.00401,0.31575,2.15916,1.47928,0.01867,1.47202
0.07157,0.00613,0.00008,0.00603,0.31235,0.004,0.30774,2.1937,1.50311,0.01924,1.48092
0.07269,0.00591,0.00008,0.00588,0.30151,0.00399,0.29995,2.22824,1.49702,0.01982,1.48926
0.07382,0.00581,0.00008,0.00573,0.29631,0.00399,0.29239,2.26278,1.51716,0.02042,1.49708
0.07495,0.0057,0.00008,0.00559,0.29056,0.00398,0.28505,2.29733,1.53351,0.02101,1.50439
0.07607,0.00552,0.00008,0.00545,0.2813,0.00397,0.27792,2.33187,1.52959,0.02161,1.51121
0.0772,0.00538,0.00008,0.00531,0.27422,0.00397,0.271,2.36641,1.53559,0.02222,1.51756
0.07833,0.00524,0.00008,0.00518,0.26719,0.00396,0.26428,2.40095,1.54021,0.02283,1.52347
0.07945,0.00511,0.00008,0.00505,0.26036,0.00396,0.25776,2.43549,1.54434,0.02347,1.52894
0.08058,0.00498,0.00008,0.00493,0.25411,0.00395,0.25143,2.47004,1.55033,0.02412,1.53401
0.08171,0.00486,0.00008,0.00481,0.24779,0.00395,0.24529,2.50458,1.55439,0.02477,1.53867
0.08283,0.00478,0.00008,0.00469,0.24376,0.00394,0.23933,2.53912,1.57154,0.02542,1.54296
0.08396,0.00464,0.00008,0.00458,0.2364,0.00394,0.23354,2.57366,1.56584,0.02607,1.54689
0.08509,0.00457,0.00008,0.00447,0.23288,0.00393,0.22792,2.6082,1.58419,0.02675,1.55048
0.08621,0.00443,0.00008,0.00436,0.22573,0.00393,0.22247,2.64274,1.57649,0.02744,1.55375
0.08734,0.00431,0.00008,0.00426,0.21965,0.00393,0.21718,2.67728,1.57439,0.02815,1.55672
0.08847,0.00426,0.00008,0.00416,0.21706,0.00394,0.21205,2.71182,1.59624,0.02894,1.5594
0.08959,0.00414,0.00008,0.00406,0.2109,0.00394,0.20707,2.74636,1.59072,0.02969,1.56181
0.09072,0.00403,0.00008,0.00397,0.20562,0.00394,0.20224,2.7809,1.59014,0.03043,1.56397
0.09185,0.00391,0.00008,0.00387,0.19961,0.00393,0.19754,2.81544,1.58226,0.03118,1.56588
0.09297,0.00382,0.00008,0.00378,0.19472,0.00394,0.19299,2.84998,1.58156,0.03196,1.56755
0.0941,0.00368,0.00008,0.0037,0.18769,0.00393,0.18857,2.88452,1.56164,0.03273,1.569
0.09523,0.00368,0.00008,0.00361,0.18766,0.00393,0.18428,2.91906,1.59907,0.03352,1.57023
0.09636,0.00358,0.00008,0.00353,0.1828,0.00393,0.18011,2.9536,1.59467,0.03429,1.57125
0.09748,0.00347,0.00008,0.00345,0.17696,0.00393,0.17606,2.98813,1.58005,0.03507,1.57207
0.09861,0.00337,0.00008,0.00338,0.17199,0.00393,0.17213,3.02267,1.57142,0.03587,1.57267
0.09974,0.00331,0.00008,0.0033,0.1689,0.00393,0.16831,3.05721,1.57861,0.0367,1.57308
0.10086,0.00322,0.00008,0.00323,0.16421,0.00392,0.16459,3.09175,1.56963,0.03752,1.57331
0.10199,0.00317,0.00008,0.00316,0.16179,0.00392,0.16098,3.12628,1.58125,0.03835,1.57337
0.10312,0.00306,0.00008,0.00309,0.1561,0.00392,0.15747,3.16082,1.55955,0.03916,1.57327
0.10424,0.00303,0.00008,0.00302,0.15448,0.00392,0.15406,3.19536,1.57727,0.04001,1.57302
0.10537,0.0029,0.00008,0.00296,0.14793,0.00392,0.15075,3.2299,1.54328,0.04086,1.57264
0.1065,0.00288,0.00008,0.00289,0.14664,0.00392,0.14753,3.26443,1.56272,0.04173,1.57213
0.10762,0.00286,0.00008,0.00283,0.14604,0.00392,0.1444,3.29897,1.58935,0.04261,1.57151
0.10875,0.00276,0.00008,0.00277,0.14086,0.00391,0.14135,3.3335,1.56533,0.04348,1.57077
0.10988,0.00268,0.00008,0.00271,0.13683,0.00391,0.1384,3.36804,1.55219,0.04435,1.56993
0.111,0.00266,0.00008,0.00266,0.1355,0.00391,0.13552,3.40258,1.56873,0.04525,1.56898
0.11213,0.00261,0.00008,0.0026,0.13322,0.00391,0.13272,3.43711,1.57387,0.04616,1.56793
0.11326,0.00255,0.00008,0.00255,0.12984,0.00391,0.13,3.47165,1.5649,0.04709,1.56678
0.11438,0.00249,0.00008,0.0025,0.12712,0.00391,0.12735,3.50618,1.56278,0.04802,1.56553
0.11551,0.00242,0.00008,0.00245,0.12324,0.0039,0.12477,3.54071,1.54505,0.04894,1.56418
0.11664,0.00239,0.00008,0.0024,0.12196,0.0039,0.12226,3.57525,1.55892,0.04987,1.56273
0.11776,0.00229,0.00008,0.00235,0.11659,0.0039,0.11981,3.60978,1.51917,0.0508,1.5612
0.11889,0.00222,0.00008,0.0023,0.11345,0.0039,0.11743,3.64432,1.50668,0.05176,1.5596
0.12002,0.00221,0.00008,0.00226,0.11289,0.0039,0.11511,3.67885,1.52789,0.05274,1.55793
0.12114,0.00222,0.00008,0.00221,0.11303,0.0039,0.11286,3.71338,1.55858,0.05373,1.5562
0.12227,0.00213,0.00008,0.00217,0.10882,0.00389,0.11066,3.74791,1.5286,0.05469,1.55441
0.12339,0.00209,0.00008,0.00213,0.10655,0.00389,0.10852,3.78245,1.52436,0.05567,1.55257
0.12452,0.00206,0.00008,0.00209,0.10491,0.00389,0.10644,3.81698,1.52842,0.05667,1.55069
0.12565,0.00203,0.00008,0.00205,0.10336,0.0039,0.10441,3.85151,1.53333,0.05779,1.54877
0.12677,0.00198,0.00008,0.00201,0.10116,0.0039,0.10243,3.88604,1.52769,0.05894,1.5468
0.1279,0.00192,0.00008,0.00197,0.09789,0.00391,0.1005,3.92057,1.50461,0.06006,1.5448
0.12903,0.00191,0.00008,0.00193,0.09728,0.00391,0.09862,3.9551,1.52168,0.06117,1.54275
0.13015,0.00185,0.00008,0.0019,0.09459,0.00391,0.09679,3.98963,1.50555,0.06226,1.54067
0.13128,0.00189,0.00008,0.00186,0.09626,0.00391,0.09501,4.02417,1.55887,0.06327,1.53853
0.13241,0.00184,0.00008,0.00183,0.09388,0.0039,0.09327,4.0587,1.54656,0.06424,1.53636
0.13353,0.00179,0.00008,0.0018,0.09111,0.0039,0.09157,4.09322,1.52655,0.06528,1.53415
0.13466,0.00178,0.00008,0.00176,0.09071,0.00389,0.08991,4.12775,1.54553,0.06634,1.53191
0.13579,0.0017,0.00008,0.00173,0.08647,0.00389,0.08829,4.16228,1.498,0.06739,1.52965
0.13691,0.00168,0.00008,0.0017,0.08574,0.00389,0.08672,4.19681,1.51016,0.06847,1.52737
0.13804,0.00168,0.00008,0.00167,0.08553,0.00389,0.08518,4.23134,1.53129,0.06958,1.52507
0.13917,0.00165,0.00008,0.00164,0.0839,0.00388,0.08368,4.26587,1.52673,0.07068,1.52276
0.14029,0.00158,0.00008,0.00161,0.08063,0.00388,0.08221,4.3004,1.49119,0.0718,1.52043
0.14142,0.00159,0.00008,0.00158,0.0812,0.00388,0.08079,4.33492,1.52592,0.07292,1.5181
0.14254,0.00156,0.00008,0.00156,0.07935,0.00388,0.07939,4.36945,1.51493,0.07405,1.51576
0.14367,0.00158,0.00008,0.00153,0.08053,0.00388,0.07803,4.40398,1.56186,0.0752,1.51341
0.1448,0.00152,0.00008,0.0015,0.07777,0.00388,0.0767,4.4385,1.53203,0.07635,1.51105
0.14592,0.00151,0.00008,0.00148,0.07717,0.00387,0.0754,4.47303,1.54394,0.07753,1.50868
0.14705,0.00145,0.00008,0.00145,0.0742,0.00387,0.07414,4.50756,1.50751,0.07869,1.50629
0.14818,0.00144,0.00008,0.00143,0.07344,0.00387,0.0729,4.54208,1.5151,0.07988,1.50389
0.1493,0.00142,0.00008,0.00141,0.07248,0.00387,0.07169,4.57661,1.51814,0.08106,1.50148
0.15043,0.00139,0.00008,0.00138,0.0708,0.00387,0.0705,4.61113,1.50537,0.08226,1.49906
0.15156,0.00137,0.00008,0.00136,0.07002,0.00387,0.06935,4.64565,1.51126,0.08347,1.49664
0.15268,0.00134,0.00008,0.00134,0.06833,0.00387,0.06822,4.68018,1.4968,0.0847,1.49422
0.15381,0.00134,0.00008,0.00132,0.0684,0.00386,0.06711,4.7147,1.52035,0.08591,1.49179
0.15493,0.0013,0.00008,0.00129,0.06631,0.00387,0.06603,4.74922,1.49555,0.0872,1.48938
0.15606,0.00126,0.00008,0.00127,0.06412,0.00387,0.06498,4.78375,1.46742,0.08858,1.48696
0.15719,0.00122,0.00008,0.00125,0.06204,0.00387,0.06395,4.81827,1.4404,0.08994,1.48455
0.15831,0.00128,0.00008,0.00123,0.06518,0.00388,0.06294,4.85279,1.53492,0.09133,1.48215
0.15944,0.00122,0.00008,0.00121,0.06244,0.00388,0.06195,4.88731,1.49153,0.09265,1.47976
0.16057,0.0012,0.00008,0.0012,0.06118,0.00388,0.06099,4.92184,1.48204,0.09398,1.47737
0.16169,0.00119,0.00008,0.00118,0.0606,0.00388,0.06004,4.95636,1.48873,0.09531,1.47498
0.16282,0.00116,0.00008,0.00116,0.05935,0.00388,0.05912,4.99088,1.4784,0.09662,1.4726
0.16394,0.00115,0.00008,0.00114,0.05844,0.00388,0.05822,5.0254,1.47581,0.09796,1.47021
0.16507,0.00112,0.00008,0.00112,0.05732,0.00388,0.05733,5.05992,1.46749,0.09935,1.46783
0.1662,0.00111,0.00008,0.00111,0.0566,0.00388,0.05646,5.09444,1.46891,0.10076,1.46545
0.16732,0.00112,0.00008,0.00109,0.05706,0.00388,0.05562,5.12896,1.50094,0.10217,1.46307
0.16845,0.00108,0.00008,0.00107,0.05507,0.00388,0.05479,5.16347,1.46819,0.10353,1.4607
0.16957,0.00103,0.00008,0.00106,0.05229,0.00388,0.05397,5.19799,1.41286,0.10494,1.45835
0.1707,0.00111,0.00008,0.00104,0.05657,0.00389,0.05318,5.23251,1.54892,0.10638,1.456
0.17183,0.00105,0.00008,0.00103,0.05344,0.00389,0.0524,5.26703,1.48261,0.10781,1.45366
0.17295,0.00102,0.00008,0.00101,0.05199,0.00389,0.05164,5.30154,1.46112,0.10925,1.45133
0.17408,0.00105,0.00008,0.001,0.05339,0.00389,0.05089,5.33606,1.5202,0.11069,1.44901
0.1752,0.00102,0.00008,0.00098,0.05178,0.00389,0.05016,5.37058,1.49346,0.11212,1.44671
0.17633,0.00104,0.00008,0.00097,0.05299,0.00389,0.04944,5.40509,1.54797,0.11359,1.44441
0.17746,0.00101,0.00008,0.00096,0.05133,0.00389,0.04874,5.43961,1.51884,0.11506,1.44213
0.17858,0.00091,0.00008,0.00094,0.04621,0.00389,0.04805,5.47412,1.38462,0.11652,1.43985
0.17971,0.00094,0.00008,0.00093,0.0479,0.00389,0.04737,5.50864,1.4534,0.11798,1.43757
0.18083,0.00092,0.00008,0.00092,0.04707,0.00389,0.04671,5.54315,1.44617,0.11944,1.4353
0.18196,0.00093,0.00008,0.0009,0.04768,0.00389,0.04606,5.57767,1.4832,0.12091,1.43304
0.18309,0.0009,0.00008,0.00089,0.04606,0.00389,0.04543,5.61218,1.45078,0.1224,1.43078
0.18421,0.00086,0.00008,0.00088,0.04369,0.00389,0.0448,5.64669,1.39307,0.12389,1.42853
0.18534,0.0009,0.00008,0.00087,0.04612,0.00389,0.04419,5.6812,1.48854,0.12541,1.42629
0.18646,0.0009,0.00008,0.00085,0.04584,0.00389,0.04359,5.71572,1.49765,0.12693,1.42406
0.18759,0.00083,0.00008,0.00084,0.04239,0.00388,0.043,5.75023,1.40174,0.12842,1.42184
0.18872,0.00085,0.00008,0.00083,0.0436,0.00388,0.04242,5.78474,1.45901,0.12995,1.41963
0.18984,0.00084,0.00008,0.00082,0.04297,0.00388,0.04186,5.81925,1.45498,0.13155,1.41744
0.19097,0.00086,0.00008,0.00081,0.04368,0.0039,0.0413,5.85376,1.49676,0.13351,1.41526
0.19209,0.00083,0.00008,0.0008,0.04229,0.0039,0.04076,5.88827,1.46629,0.13535,1.41309
0.19322,0.00083,0.00008,0.00079,0.0424,0.00391,0.04022,5.92278,1.4875,0.13715,1.41093
0.19434,0.00083,0.00008,0.00078,0.04245,0.00391,0.0397,5.95729,1.50654,0.13889,1.40878
0.19547,0.00084,0.00008,0.00077,0.0428,0.00392,0.03918,5.99179,1.53642,0.14068,1.40664
0.1966,0.0008,0.00008,0.00076,0.0406,0.00392,0.03867,6.0263,1.47452,0.14245,1.40451
0.19772,0.00078,0.00008,0.00075,0.03987,0.00393,0.03818,6.06081,1.4645,0.14423,1.40238
0.19885,0.00086,0.00008,0.00074,0.04382,0.00393,0.03769,6.09532,1.6281,0.14593,1.40026
0.19997,0.00078,0.00008,0.00073,0.03996,0.00391,0.03721,6.12982,1.50135,0.14692,1.39816
0.2011,0.00071,0.00008,0.00072,0.03615,0.0039,0.03674,6.16433,1.37372,0.14835,1.39606
0.20222,0.00077,0.00008,0.00071,0.03945,0.0039,0.03628,6.19883,1.51588,0.14989,1.39398
0.20335,0.00072,0.00008,0.0007,0.0365,0.0039,0.03582,6.23334,1.41829,0.15143,1.39191
0.20448,0.00073,0.00008,0.00069,0.03741,0.0039,0.03538,6.26784,1.46984,0.15306,1.38984
0.2056,0.00071,0.00008,0.00069,0.03646,0.00389,0.03494,6.30235,1.4482,0.15467,1.3878
0.20673,0.00075,0.00008,0.00068,0.03828,0.00389,0.03451,6.33685,1.53711,0.15632,1.38576
0.20785,0.00075,0.00008,0.00067,0.03831,0.00389,0.03409,6.37136,1.55499,0.15797,1.38373
0.20898,0.00072,0.00008,0.00066,0.03691,0.00389,0.03367,6.40586,1.51461,0.1596,1.38171
0.2101,0.00071,0.00008,0.00065,0.03611,0.00389,0.03326,6.44036,1.49761,0.16129,1.37971
0.21123,0.00069,0.00008,0.00064,0.03502,0.00389,0.03286,6.47486,1.46801,0.16299,1.37771
0.21236,0.00065,0.00008,0.00064,0.03332,0.00389,0.03247,6.50936,1.41175,0.16469,1.37572
0.21348,0.00066,0.00008,0.00063,0.03391,0.00389,0.03208,6.54386,1.45199,0.16638,1.37373
0.21461,0.00066,0.00008,0.00062,0.03355,0.00388,0.0317,6.57836,1.45198,0.16807,1.37176
0.21573,0.00063,0.00008,0.00061,0.03219,0.00388,0.03132,6.61286,1.40762,0.16977,1.36979
0.21686,0.00064,0.00008,0.00061,0.03271,0.00388,0.03096,6.64736,1.44525,0.17153,1.36783
0.21798,0.00065,0.00008,0.0006,0.03292,0.00388,0.03059,6.68186,1.4698,0.17329,1.36588
0.21911,0.00065,0.00008,0.00059,0.03327,0.00388,0.03024,6.71636,1.50057,0.17506,1.36394
0.22023,0.00063,0.00008,0.00059,0.032,0.00388,0.02989,6.75086,1.45848,0.1768,1.36201
0.22136,0.00063,0.00008,0.00058,0.03197,0.00388,0.02954,6.78535,1.47194,0.17856,1.36009
0.22248,0.00062,0.00008,0.00057,0.03187,0.00388,0.0292,6.81985,1.48218,0.18033,1.35818
0.22361,0.0006,0.00008,0.00057,0.03042,0.00388,0.02887,6.85435,1.42909,0.18213,1.35629
0.22473,0.00061,0.00008,0.00056,0.03115,0.00388,0.02854,6.88884,1.47815,0.18395,1.3544
0.22586,0.00059,0.00008,0.00055,0.03005,0.00388,0.02822,6.92334,1.44051,0.18577,1.35252
0.22699,0.00059,0.00008,0.00055,0.03007,0.00387,0.0279,6.95783,1.45571,0.18755,1.35066
0.22811,0.00058,0.00008,0.00054,0.02971,0.00387,0.02759,6.99232,1.45276,0.18937,1.3488
0.22924,0.00054,0.00008,0.00053,0.02751,0.00387,0.02728,7.02682,1.35835,0.19113,1.34695
0.23036,0.00052,0.00008,0.00053,0.02633,0.00387,0.02698,7.06131,1.31271,0.19297,1.34512
0.23149,0.00058,0.00008,0.00052,0.02964,0.00387,0.02668,7.0958,1.49216,0.19483,1.34329
0.23261,0.00064,0.00008,0.00052,0.03255,0.00387,0.02639,7.13029,1.65485,0.19673,1.34147
0.23374,0.00059,0.00008,0.00051,0.03003,0.00387,0.0261,7.16479,1.54143,0.19858,1.33966
0.23486,0.00057,0.00008,0.00051,0.02885,0.00387,0.02581,7.19928,1.49511,0.20043,1.33786
0.23599,0.00056,0.00008,0.0005,0.02843,0.00387,0.02553,7.23377,1.48763,0.20239,1.33608
0.23711,0.00047,0.00008,0.0005,0.0242,0.00387,0.02526,7.26826,1.27842,0.2043,1.3343
0.23824,0.00056,0.00008,0.00049,0.0287,0.00387,0.02499,7.30274,1.53032,0.20632,1.33254
0.23936,0.00056,0.00008,0.00048,0.02841,0.00387,0.02472,7.33723,1.52923,0.20823,1.33079
0.24049,0.00054,0.00008,0.00048,0.0274,0.00387,0.02446,7.37172,1.48888,0.21015,1.32905
0.24161,0.0006,0.00008,0.00047,0.03076,0.00387,0.0242,7.40621,1.68733,0.21209,1.32732
0.24274,0.00056,0.00008,0.00047,0.02858,0.00387,0.02394,7.44069,1.58233,0.21403,1.3256
0.24386,0.00056,0.00008,0.00046,0.02835,0.00387,0.02369,7.47518,1.58422,0.21599,1.32389
0.24499,0.00049,0.00008,0.00046,0.02519,0.00386,0.02345,7.50967,1.42062,0.21796,1.32219
0.24611,0.00049,0.00008,0.00045,0.02506,0.00386,0.0232,7.54415,1.42618,0.21988,1.3205
0.24724,0.00049,0.00008,0.00045,0.02499,0.00386,0.02296,7.57863,1.43528,0.22182,1.31881
0.24836,0.00053,0.00008,0.00045,0.02707,0.00386,0.02273,7.61312,1.56896,0.22378,1.31714
0.24949,0.00054,0.00008,0.00044,0.02732,0.00386,0.02249,7.6476,1.59776,0.22575,1.31548
0.25061,0.00053,0.00008,0.00044,0.02702,0.00386,0.02226,7.68208,1.59443,0.22773,1.31383
0.25174,0.00047,0.00008,0.00043,0.02409,0.00386,0.02204,7.71657,1.43463,0.22969,1.31219
0.25286,0.00045,0.00008,0.00043,0.02315,0.00386,0.02181,7.75105,1.39053,0.23173,1.31056
0.25399,0.00046,0.00008,0.00042,0.02365,0.00386,0.02159,7.78553,1.43328,0.23375,1.30894
0.25511,0.00049,0.00008,0.00042,0.02486,0.00386,0.02138,7.82001,1.52007,0.23582,1.30733
0.25624,0.00047,0.00008,0.00042,0.02385,0.00386,0.02116,7.85449,1.47159,0.23787,1.30573
0.25736,0.00051,0.00008,0.00041,0.02593,0.00386,0.02095,7.88897,1.61352,0.23997,1.30414
0.25849,0.00047,0.00008,0.00041,0.02386,0.00386,0.02075,7.92345,1.49764,0.24202,1.30257
0.25961,0.00046,0.00008,0.0004,0.02321,0.00385,0.02054,7.95792,1.47009,0.24411,1.301
0.26074,0.00051,0.00008,0.0004,0.02578,0.00385,0.02034,7.9924,1.64686,0.24622,1.29944
0.26186,0.00047,0.00008,0.0004,0.02412,0.00385,0.02014,8.02688,1.55412,0.24829,1.29789
0.26299,0.00051,0.00008,0.00039,0.0258,0.00385,0.01995,8.06135,1.67659,0.2504,1.29635
0.26411,0.00044,0.00008,0.00039,0.02225,0.00385,0.01976,8.09583,1.45835,0.25254,1.29482
0.26524,0.00041,0.00008,0.00038,0.02092,0.00385,0.01957,8.1303,1.38265,0.25465,1.2933
0.26636,0.00043,0.00008,0.00038,0.02172,0.00385,0.01938,8.16478,1.44818,0.25678,1.29179
0.26748,0.00042,0.00008,0.00038,0.02131,0.00385,0.01919,8.19925,1.43255,0.2589,1.29029
0.26861,0.00053,0.00008,0.00037,0.02679,0.00385,0.01901,8.23372,1.81624,0.26111,1.28881
0.26973,0.0004,0.00008,0.00037,0.02025,0.00385,0.01883,8.26819,1.38409,0.26321,1.28733
0.27086,0.00043,0.00008,0.00037,0.02184,0.00385,0.01865,8.30267,1.5057,0.26542,1.28586
0.27198,0.00043,0.00008,0.00036,0.02207,0.00385,0.01848,8.33714,1.53423,0.26761,1.2844
0.27311,0.0004,0.00008,0.00036,0.02043,0.00385,0.01831,8.37161,1.43198,0.26978,1.28295
0.27423,0.00038,0.00008,0.00036,0.01947,0.00385,0.01814,8.40608,1.37588,0.27196,1.28152
0.27536,0.00042,0.00008,0.00035,0.02158,0.00385,0.01797,8.44055,1.53754,0.2742,1.28009
0.27648,0.00039,0.00008,0.00035,0.01966,0.00385,0.0178,8.47501,1.41238,0.27643,1.27867
0.27761,0.0004,0.00008,0.00035,0.02049,0.00385,0.01764,8.50948,1.48338,0.27865,1.27726
0.27873,0.0004,0.00008,0.00034,0.02039,0.00385,0.01748,8.54395,1.48848,0.2809,1.27586
0.27985,0.0004,0.00008,0.00034,0.02017,0.00385,0.01732,8.57841,1.48434,0.28313,1.27447
0.28098,0.00041,0.00008,0.00034,0.021,0.00385,0.01716,8.61288,1.55815,0.28538,1.27309
0.2821,0.00042,0.00008,0.00033,0.0214,0.00385,0.01701,8.64735,1.59998,0.2877,1.27172
0.28323,0.00034,0.00008,0.00033,0.01746,0.00385,0.01685,8.68181,1.31636,0.28992,1.27036
0.28435,0.0004,0.00008,0.00033,0.02036,0.00385,0.0167,8.71627,1.54692,0.29225,1.26902
0.28548,0.00039,0.00008,0.00032,0.01977,0.00385,0.01655,8.75074,1.51406,0.29454,1.26768
0.2866,0.00036,0.00008,0.00032,0.01845,0.00385,0.01641,8.7852,1.424,0.29681,1.26635
0.28772,0.0004,0.00008,0.00032,0.02019,0.00385,0.01626,8.81966,1.5705,0.29913,1.26503
0.28885,0.00039,0.00008,0.00032,0.01995,0.00385,0.01612,8.85412,1.56422,0.30145,1.26373
0.28997,0.00042,0.00008,0.00031,0.02148,0.00385,0.01598,8.88858,1.69679,0.30382,1.26243
0.2911,0.00041,0.00008,0.00031,0.0207,0.00385,0.01584,8.92304,1.64846,0.30615,1.26115
0.29222,0.00037,0.00008,0.00031,0.01887,0.00384,0.0157,8.9575,1.51393,0.30849,1.25988
0.29335,0.00037,0.00008,0.00031,0.019,0.00384,0.01557,8.99196,1.53619,0.31081,1.25861
0.29447,0.00039,0.00008,0.0003,0.01994,0.00384,0.01543,9.02642,1.62484,0.31318,1.25736
0.29559,0.0004,0.00008,0.0003,0.02016,0.00384,0.0153,9.06087,1.6552,0.31553,1.25612
0.29672,0.00039,0.00008,0.0003,0.01984,0.00384,0.01517,9.09533,1.6416,0.31793,1.25489
0.29784,0.00034,0.00008,0.00029,0.01714,0.00384,0.01504,9.12978,1.42851,0.32032,1.25367
0.29897,0.00034,0.00008,0.00029,0.01755,0.00384,0.01491,9.16424,1.47375,0.3227,1.25246
0.30009,0.00036,0.00008,0.00029,0.01835,0.00384,0.01479,9.19869,1.55279,0.32511,1.25126
0.30121,0.00036,0.00008,0.00029,0.01821,0.00384,0.01466,9.23315,1.55222,0.32748,1.25006
0.30234,0.00036,0.00008,0.00029,0.01831,0.00384,0.01454,9.2676,1.57242,0.32994,1.24888
0.30346,0.00037,0.00008,0.00028,0.01871,0.00384,0.01442,9.30205,1.61931,0.33237,1.24771
0.30459,0.00035,0.00008,0.00028,0.01791,0.00384,0.0143,9.3365,1.56087,0.33483,1.24655
0.30571,0.00034,0.00008,0.00028,0.01748,0.00384,0.01418,9.37095,1.53503,0.33727,1.2454
0.30683,0.00033,0.00008,0.00028,0.01697,0.00384,0.01407,9.4054,1.50079,0.3397,1.24425
0.30796,0.00038,0.00008,0.00027,0.01951,0.00384,0.01395,9.43985,1.7387,0.34217,1.24311
0.30908,0.00032,0.00008,0.00027,0.01614,0.00384,0.01384,9.4743,1.44881,0.34464,1.24198
0.3102,0.00033,0.00008,0.00027,0.01661,0.00384,0.01372,9.50875,1.50226,0.34717,1.24086
0.31133,0.00037,0.00008,0.00027,0.01898,0.00384,0.01361,9.54319,1.72813,0.34968,1.23975
0.31245,0.00034,0.00008,0.00026,0.01757,0.00384,0.0135,9.57764,1.6115,0.35218,1.23864
0.31358,0.00032,0.00008,0.00026,0.01647,0.00384,0.01339,9.61209,1.52199,0.35462,1.23754
0.3147,0.00031,0.00008,0.00026,0.01565,0.00384,0.01329,9.64653,1.45591,0.35713,1.23644
0.31582,0.00032,0.00008,0.00026,0.01642,0.00384,0.01318,9.68097,1.53861,0.3597,1.23536
0.31695,0.00033,0.00008,0.00026,0.01666,0.00384,0.01308,9.71542,1.57262,0.36228,1.23428
0.31807,0.00031,0.00008,0.00025,0.01604,0.00384,0.01297,9.74986,1.52431,0.3648,1.23321
0.31919,0.00033,0.00008,0.00025,0.01676,0.00384,0.01287,9.7843,1.60478,0.36734,1.23215
0.32032,0.0003,0.00008,0.00025,0.01541,0.00384,0.01277,9.81874,1.48567,0.36987,1.23109
0.32144,0.0003,0.00008,0.00025,0.01519,0.00384,0.01267,9.85318,1.47478,0.37246,1.23005
0.32256,0.0003,0.00008,0.00025,0.01524,0.00384,0.01257,9.88762,1.48947,0.37504,1.22901
0.32369,0.00032,0.00008,0.00024,0.01634,0.00384,0.01247,9.92206,1.60879,0.3777,1.22798
0.32481,0.00029,0.00008,0.00024,0.01485,0.00384,0.01238,9.9565,1.47193,0.38027,1.22697
0.32593,0.0003,0.00008,0.00024,0.01531,0.00384,0.01228,9.99093,1.52837,0.38286,1.22596
0.32706,0.0003,0.00008,0.00024,0.01506,0.00383,0.01219,10.02537,1.51322,0.38544,1.22496
0.32818,0.00029,0.00008,0.00024,0.01466,0.00383,0.01209,10.05981,1.48333,0.38808,1.22396
0.3293,0.00031,0.00008,0.00024,0.01562,0.00383,0.012,10.09424,1.59142,0.39075,1.22298
0.33043,0.00029,0.00008,0.00023,0.01459,0.00383,0.01191,10.12868,1.49719,0.3934,1.222
0.33155,0.00029,0.00008,0.00023,0.01486,0.00383,0.01182,10.16311,1.53521,0.39607,1.22104
0.33267,0.00026,0.00008,0.00023,0.01342,0.00383,0.01173,10.19754,1.39597,0.39867,1.22008
0.3338,0.0003,0.00008,0.00023,0.0155,0.00384,0.01164,10.23197,1.62257,0.40152,1.21913
0.33492,0.0003,0.00008,0.00023,0.01507,0.00384,0.01156,10.2664,1.588,0.40512,1.21818
0.33604,0.0003,0.00008,0.00022,0.01518,0.00385,0.01147,10.30083,1.61061,0.40812,1.21725
0.33717,0.00028,0.00008,0.00022,0.0144,0.00385,0.01139,10.33526,1.53822,0.41107,1.21632
0.33829,0.0003,0.00008,0.00022,0.0153,0.00385,0.0113,10.36969,1.64542,0.414,1.21539
0.33941,0.00025,0.00008,0.00022,0.01288,0.00385,0.01122,10.40412,1.39418,0.41683,1.21448
0.34054,0.00031,0.00008,0.00022,0.016,0.00385,0.01114,10.43855,1.74391,0.41974,1.21356
0.34166,0.00029,0.00008,0.00022,0.01495,0.00385,0.01106,10.47297,1.63968,0.42262,1.21266
0.34278,0.00027,0.00008,0.00022,0.01357,0.00385,0.01098,10.5074,1.4978,0.42554,1.21176
0.34391,0.00031,0.00008,0.00021,0.01563,0.00386,0.0109,10.54182,1.73653,0.42844,1.21086
0.34503,0.00027,0.00008,0.00021,0.01377,0.00386,0.01082,10.57625,1.54004,0.43131,1.20997
0.34615,0.00027,0.00008,0.00021,0.01373,0.00386,0.01074,10.61067,1.54604,0.43415,1.20908
0.34728,0.00028,0.00008,0.00021,0.01431,0.00386,0.01066,10.64509,1.62117,0.43704,1.20819
0.3484,0.00026,0.00008,0.00021,0.01321,0.00386,0.01059,10.67951,1.50664,0.43995,1.20732
0.34952,0.00027,0.00008,0.00021,0.01398,0.00386,0.01051,10.71393,1.6042,0.44298,1.20644
0.35064,0.00028,0.00008,0.0002,0.01438,0.00386,0.01044,10.74835,1.66073,0.44594,1.20557
0.35177,0.00028,0.00008,0.0002,0.01406,0.00386,0.01036,10.78277,1.63521,0.44877,1.20471
0.35289,0.00024,0.00008,0.0002,0.01243,0.00386,0.01029,10.81719,1.45391,0.45171,1.20386
0.35401,0.00026,0.00008,0.0002,0.01336,0.00386,0.01022,10.8516,1.57379,0.45463,1.203
0.35514,0.00029,0.00008,0.0002,0.015,0.00386,0.01014,10.88602,1.77764,0.45764,1.20216
0.35626,0.0003,0.00008,0.0002,0.01552,0.00386,0.01007,10.92044,1.85095,0.46054,1.20132
0.35738,0.00026,0.00008,0.0002,0.01306,0.00386,0.01,10.95485,1.56743,0.46336,1.20049
0.3585,0.00029,0.00008,0.00019,0.01496,0.00386,0.00993,10.98926,1.80613,0.46627,1.19966
0.35963,0.00029,0.00008,0.00019,0.01474,0.00386,0.00987,11.02368,1.79122,0.46912,1.19884
0.36075,0.0003,0.00008,0.00019,0.0151,0.00386,0.0098,11.05809,1.84584,0.47201,1.19802
0.36187,0.00031,0.00008,0.00019,0.016,0.00386,0.00973,11.0925,1.96913,0.47499,1.19721
0.36299,0.00026,0.00008,0.00019,0.01334,0.00386,0.00966,11.12691,1.65124,0.47787,1.19641
0.36412,0.00028,0.00008,0.00019,0.01437,0.00386,0.0096,11.16132,1.79064,0.48081,1.19561
0.36524,0.00027,0.00008,0.00019,0.01396,0.00386,0.00953,11.19573,1.75013,0.48367,1.19483
0.36636,0.00021,0.00008,0.00019,0.01085,0.00386,0.00947,11.23014,1.36848,0.48652,1.19405
0.36748,0.00025,0.00008,0.00018,0.01299,0.00386,0.0094,11.26454,1.64805,0.48952,1.19327
0.36861,0.00021,0.00008,0.00018,0.01095,0.00386,0.00934,11.29895,1.39827,0.49249,1.19251
0.36973,0.00025,0.00008,0.00018,0.0128,0.00386,0.00928,11.33336,1.64356,0.49552,1.19176
0.37085,0.00028,0.00008,0.00018,0.01405,0.00386,0.00922,11.36776,1.81542,0.49847,1.19101
0.37197,0.00022,0.00008,0.00018,0.01133,0.00386,0.00916,11.40216,1.47302,0.50141,1.19027
0.3731,0.00022,0.00008,0.00018,0.01136,0.00386,0.00909,11.43657,1.48631,0.50435,1.18954
0.37422,0.00027,0.00008,0.00018,0.0138,0.00386,0.00903,11.47097,1.81558,0.50743,1.18883
0.37534,0.00026,0.00008,0.00018,0.01329,0.00386,0.00898,11.50537,1.75896,0.5104,1.18812
0.37646,0.00026,0.00008,0.00017,0.01309,0.00386,0.00892,11.53977,1.74288,0.51346,1.18742
0.37758,0.00023,0.00008,0.00017,0.01178,0.00386,0.00886,11.57417,1.57805,0.51646,1.18673
0.37871,0.00023,0.00008,0.00017,0.01151,0.00385,0.0088,11.60857,1.55128,0.51944,1.18605
0.37983,0.0002,0.00008,0.00017,0.01026,0.00385,0.00874,11.64296,1.39072,0.52245,1.18538
0.38095,0.00026,0.00008,0.00017,0.01305,0.00385,0.00869,11.67736,1.77966,0.52558,1.18472
0.38207,0.00026,0.00008,0.00017,0.01349,0.00385,0.00863,11.71175,1.84972,0.52873,1.18407
0.3832,0.00021,0.00008,0.00017,0.01056,0.00385,0.00858,11.74615,1.45656,0.53175,1.18342
0.38432,0.00024,0.00008,0.00017,0.01199,0.00385,0.00852,11.78054,1.6637,0.53485,1.18279
0.38544,0.00023,0.00008,0.00017,0.0116,0.00385,0.00847,11.81494,1.61889,0.53787,1.18216
0.38656,0.00023,0.00008,0.00017,0.01164,0.00385,0.00842,11.84933,1.63386,0.54092,1.18154
0.38768,0.00023,0.00008,0.00016,0.01176,0.00385,0.00836,11.88372,1.66045,0.54406,1.18093
0.38881,0.00022,0.00008,0.00016,0.0111,0.00385,0.00831,11.91811,1.57724,0.54721,1.18032
0.38993,0.00021,0.00008,0.00016,0.01095,0.00385,0.00826,11.9525,1.56391,0.55032,1.17972
0.39105,0.00023,0.00008,0.00016,0.0116,0.00385,0.00821,11.98689,1.66609,0.55343,1.17912
0.39217,0.00022,0.00008,0.00016,0.01141,0.00385,0.00816,12.02127,1.64831,0.55653,1.17854
0.39329,0.00022,0.00008,0.00016,0.01097,0.00385,0.0081,12.05566,1.59501,0.55968,1.17795
0.39441,0.00026,0.00008,0.00016,0.01333,0.00385,0.00805,12.09004,1.94843,0.56296,1.17738
0.39554,0.00022,0.00008,0.00016,0.01127,0.00385,0.00801,12.12443,1.65707,0.56614,1.1768
0.39666,0.00019,0.00008,0.00016,0.00981,0.00385,0.00796,12.15881,1.45097,0.56926,1.17624
0.39778,0.00024,0.00008,0.00016,0.01206,0.00385,0.00791,12.19319,1.7934,0.57244,1.17568
0.3989,0.00022,0.00008,0.00015,0.01139,0.00385,0.00786,12.22758,1.70244,0.5756,1.17513
0.40002,0.00024,0.00008,0.00015,0.01203,0.00385,0.00781,12.26196,1.80837,0.57885,1.17458
0.40114,0.00023,0.00008,0.00015,0.01197,0.00385,0.00776,12.29634,1.80957,0.58208,1.17404
0.40227,0.00022,0.00008,0.00015,0.01115,0.00385,0.00772,12.33072,1.69472,0.58534,1.17351
0.40339,0.00023,0.00008,0.00015,0.01198,0.00385,0.00767,12.36509,1.83218,0.58852,1.17298
0.40451,0.00023,0.00008,0.00015,0.01157,0.00385,0.00763,12.39947,1.77914,0.5917,1.17247
0.40563,0.00025,0.00008,0.00015,0.01286,0.00385,0.00758,12.43385,1.98763,0.59495,1.17196
0.40675,0.00023,0.00008,0.00015,0.01168,0.00385,0.00754,12.46822,1.81633,0.59819,1.17146
0.40787,0.00023,0.00008,0.00015,0.01152,0.00385,0.00749,12.5026,1.80022,0.60147,1.17096
0.40899,0.00019,0.00008,0.00015,0.00946,0.00386,0.00745,12.53697,1.48636,0.60658,1.17048
0.41012,0.00021,0.00008,0.00015,0.01068,0.00387,0.0074,12.57134,1.68792,0.61093,1.17
0.41124,0.00024,0.00008,0.00014,0.01244,0.00387,0.00736,12.60571,1.97691,0.61503,1.16953
0.41236,0.00019,0.00008,0.00014,0.00948,0.00388,0.00732,12.64008,1.51536,0.61915,1.16907
0.41348,0.00023,0.00008,0.00014,0.01173,0.00388,0.00727,12.67445,1.88371,0.62321,1.16861
0.4146,0.00021,0.00008,0.00014,0.01087,0.00388,0.00723,12.70882,1.75536,0.62721,1.16816
0.41572,0.00015,0.00008,0.00014,0.00788,0.00389,0.00719,12.74319,1.28004,0.63118,1.16772
0.41684,0.00021,0.00008,0.00014,0.01071,0.00389,0.00715,12.77755,1.74844,0.63499,1.16728
0.41796,0.00027,0.00008,0.00014,0.01371,0.00389,0.00711,12.81192,2.25052,0.63877,1.16684
0.41908,0.00022,0.00008,0.00014,0.01135,0.00389,0.00707,12.84628,1.87295,0.64229,1.16641
0.42021,0.00028,0.00008,0.00014,0.0141,0.00389,0.00703,12.88065,2.33861,0.64611,1.16598
0.42133,0.00022,0.00008,0.00014,0.01105,0.00389,0.00699,12.91501,1.84335,0.64964,1.16556
0.42245,0.00022,0.00008,0.00014,0.01111,0.0039,0.00695,12.94937,1.86298,0.65336,1.16513
0.42357,0.00021,0.00008,0.00014,0.0105,0.0039,0.00691,12.98373,1.76948,0.65692,1.16471
0.42469,0.00017,0.00008,0.00013,0.00867,0.0039,0.00687,13.01809,1.47,0.66039,1.16429
0.42581,0.00017,0.00008,0.00013,0.00879,0.0039,0.00683,13.05245,1.49715,0.66409,1.16387
0.42693,0.00021,0.00008,0.00013,0.01068,0.0039,0.00679,13.08681,1.82863,0.66782,1.16345
0.42805,0.00023,0.00008,0.00013,0.01193,0.0039,0.00676,13.12116,2.05342,0.67157,1.16303
0.42917,0.00023,0.00008,0.00013,0.01177,0.0039,0.00672,13.15552,2.03654,0.67524,1.16261
0.43029,0.00019,0.00008,0.00013,0.0099,0.0039,0.00668,13.18987,1.72231,0.6789,1.16219
0.43141,0.00017,0.00008,0.00013,0.00847,0.0039,0.00664,13.22423,1.48129,0.68238,1.16178
0.43254,0.00025,0.00008,0.00013,0.01271,0.0039,0.00661,13.25858,2.23507,0.68617,1.16136
0.43366,0.00023,0.00008,0.00013,0.01185,0.0039,0.00657,13.29293,2.09449,0.68996,1.16095
0.43478,0.0002,0.00008,0.00013,0.0104,0.00391,0.00653,13.32728,1.84795,0.69378,1.16053
0.4359,0.00017,0.00008,0.00013,0.00871,0.00391,0.0065,13.36163,1.55565,0.69747,1.16012
0.43702,0.00021,0.00008,0.00013,0.01061,0.00391,0.00646,13.39598,1.90465,0.70112,1.15971
0.43814,0.00014,0.00008,0.00013,0.00691,0.00391,0.00643,13.43033,1.24627,0.70467,1.1593
0.43926,0.00017,0.00008,0.00013,0.00857,0.00391,0.00639,13.46467,1.55393,0.70843,1.1589
0.44038,0.00019,0.00008,0.00012,0.00969,0.00391,0.00636,13.49902,1.76561,0.71234,1.15849
0.4415,0.00021,0.00008,0.00012,0.01082,0.00391,0.00632,13.53336,1.98202,0.71618,1.15809
0.44262,0.00019,0.00008,0.00012,0.00953,0.00391,0.00629,13.56771,1.75425,0.71987,1.15769
0.44374,0.00019,0.00008,0.00012,0.0097,0.00391,0.00626,13.60205,1.79529,0.72355,1.15729
0.44486,0.0002,0.00008,0.00012,0.01012,0.00391,0.00622,13.63639,1.8815,0.72734,1.15689
0.44598,0.00018,0.00008,0.00012,0.00907,0.00391,0.00619,13.67073,1.69536,0.7311,1.1565
0.4471,0.00018,0.00008,0.00012,0.00906,0.00391,0.00616,13.70507,1.70174,0.73495,1.1561
0.44822,0.00027,0.00008,0.00012,0.01361,0.00391,0.00612,13.73941,2.56997,0.73896,1.15571
0.44934,0.00022,0.00008,0.00012,0.01125,0.00391,0.00609,13.77374,2.1337,0.74261,1.15532
0.45046,0.00025,0.00008,0.00012,0.01258,0.00392,0.00606,13.80808,2.3981,0.7465,1.15493
0.45158,0.00021,0.00008,0.00012,0.0107,0.00391,0.00603,13.84241,2.0508,0.75013,1.15454
0.4527,0.00018,0.00008,0.00012,0.00903,0.00391,0.00599,13.87675,1.73911,0.75359,1.15416
0.45382,0.00017,0.00008,0.00012,0.00862,0.00391,0.00596,13.91108,1.66824,0.75737,1.15377
0.45494,0.00016,0.00008,0.00012,0.0081,0.00391,0.00593,13.94541,1.57596,0.76118,1.15339
0.45606,0.00017,0.00008,0.00012,0.00875,0.00391,0.0059,13.97974,1.7098,0.76498,1.15301
0.45718,0.00014,0.00008,0.00012,0.00703,0.00391,0.00587,14.01407,1.3811,0.76882,1.15262
0.4583,0.00014,0.00008,0.00011,0.0069,0.00391,0.00584,14.0484,1.36273,0.77256,1.15224
0.45942,0.00019,0.00008,0.00011,0.00971,0.00392,0.00581,14.08273,1.92473,0.77666,1.15186
0.46054,0.00018,0.00008,0.00011,0.00942,0.00392,0.00578,14.11705,1.8778,0.78069,1.15148
0.46166,0.00017,0.00008,0.00011,0.00875,0.00392,0.00575,14.15138,1.75316,0.78461,1.1511
0.46278,0.00019,0.00008,0.00011,0.00946,0.00392,0.00572,14.1857,1.9036,0.78849,1.15073
0.4639,0.00017,0.00008,0.00011,0.00878,0.00392,0.00569,14.22003,1.77576,0.79221,1.15035
0.46502,0.00014,0.00008,0.00011,0.00736,0.00392,0.00566,14.25435,1.49637,0.79602,1.14996
0.46614,0.00016,0.00008,0.00011,0.00811,0.00392,0.00563,14.28867,1.65519,0.80011,1.14958
0.46726,0.00017,0.00008,0.00011,0.00851,0.00392,0.0056,14.32299,1.74483,0.80411,1.1492
0.46838,0.00019,0.00008,0.00011,0.00962,0.00392,0.00557,14.35731,1.98338,0.80816,1.14882
0.4695,0.00016,0.00008,0.00011,0.00804,0.00392,0.00554,14.39163,1.66546,0.81192,1.14843
0.47062,0.00018,0.00008,0.00011,0.00925,0.00392,0.00552,14.42594,1.92471,0.81592,1.14804
0.47174,0.00016,0.00008,0.00011,0.00791,0.00392,0.00549,14.46026,1.65298,0.81977,1.14765
0.47286,0.00018,0.00008,0.00011,0.00938,0.00392,0.00546,14.49457,1.97018,0.82394,1.14725
0.47398,0.00019,0.00008,0.00011,0.00969,0.00392,0.00543,14.52888,2.04632,0.82808,1.14686
0.4751,0.00015,0.00008,0.00011,0.00747,0.00392,0.00541,14.5632,1.58528,0.8321,1.14646
0.47622,0.00014,0.00008,0.00011,0.00738,0.00392,0.00538,14.59751,1.57291,0.83594,1.14605
0.47733,0.00012,0.00008,0.0001,0.00615,0.00393,0.00535,14.63182,1.31665,0.84123,1.14564
0.47845,0.00012,0.00008,0.0001,0.00602,0.00394,0.00532,14.66613,1.29506,0.84654,1.14523
0.47957,0.00016,0.00008,0.0001,0.00834,0.00394,0.0053,14.70043,1.80311,0.85183,1.14482
0.48069,0.00013,0.00008,0.0001,0.0067,0.00395,0.00527,14.73474,1.45533,0.85684,1.14441
0.48181,0.00017,0.00008,0.0001,0.00861,0.00395,0.00524,14.76905,1.87878,0.86185,1.14399
0.48293,0.0002,0.00008,0.0001,0.01034,0.00395,0.00522,14.80335,2.26494,0.86665,1.14357
0.48405,0.00014,0.00008,0.0001,0.00711,0.00396,0.00519,14.83765,1.56609,0.87185,1.14315
0.48517,0.00017,0.00008,0.0001,0.00868,0.00396,0.00517,14.87195,1.91912,0.87688,1.14272
0.48629,0.00024,0.00008,0.0001,0.0123,0.00397,0.00514,14.90626,2.73224,0.88191,1.14229
0.48741,0.00019,0.00008,0.0001,0.00962,0.00397,0.00512,14.94055,2.14768,0.88704,1.14187
0.48853,0.00018,0.00008,0.0001,0.00935,0.00398,0.00509,14.97485,2.09711,0.89185,1.14144
0.48964,0.00014,0.00008,0.0001,0.00707,0.00398,0.00506,15.00915,1.59344,0.89658,1.14101
0.49076,0.00016,0.00008,0.0001,0.00831,0.00399,0.00504,15.04345,1.88155,0.90275,1.14057
0.49188,0.00016,0.00008,0.0001,0.00824,0.004,0.00502,15.07774,1.87389,0.90847,1.14014
0.493,0.00016,0.00008,0.0001,0.00804,0.004,0.00499,15.11204,1.83705,0.91376,1.1397
0.49412,0.00013,0.00008,0.0001,0.00654,0.00401,0.00497,15.14633,1.50068,0.91927,1.13926
0.49524,0.00013,0.00008,0.0001,0.00677,0.00401,0.00494,15.18062,1.56115,0.92443,1.13882
0.49636,0.00015,0.00008,0.0001,0.00754,0.00402,0.00492,15.21491,1.74565,0.92956,1.13838
0.49748,0.00015,0.00008,0.0001,0.00757,0.00402,0.00489,15.2492,1.75947,0.93472,1.13793
0.49859,0.00015,0.00008,0.0001,0.00749,0.00403,0.00487,15.28349,1.7489,0.94018,1.13747
0.49971,0.00019,0.00008,0.0001,0.00956,0.00403,0.00485,15.31778,2.24405,0.94673,1.13701
0.50027,0.0002,0.00008,0.00009,0.01025,0.00404,0.00483,15.33492,2.41066,0.94906,1.13678