File: 2025/starling_2025/figures/experimental_comparison/saxs_scattering/experiment/prota/mff_out.csv
#File Plotted Below: prota_clean.dat,,,,,,,,,,
,,,,,,,,,,
    #Fit from 0.01-0.15 with polymer MFF,,,,,,,,,,
#Initial search parameter for I0 = 0.0337362,,,,,,,,,,
#Initial search parameter for Rg = 30,,,,,,,,,,
#Initial search parameter for nu = 0.499881,,,,,,,,,,
#BestFit for I0 = 0.03603 +- 0.00006,,,,,,,,,,
#BestFit for I(0)/I0 = 1.00000 +- 0.00174,,,,,,,,,,
#BestFit for Rg = 39.40850 +- 0.07332,,,,,,,,,,
#BestFit for nu = 0.59481 +- 0.00281,,,,,,,,,,
#BestFit reduced chisquared = 0.05963,,,,,,,,,,
#-------------,,,,,,,,,,
#-------------,,,,,,,,,,
,,,,,,,,,,
    #q,I(q),Error,fit,I(q)/I0,Error/I0,fit/I0,qRg,((qRg)^2)I(q)/I0,((qRg)^2)*Error/I0,((qRg)^2)*fit/I0
0.0045,0.03784,0.01514,0.03568,1.05033,0.42019,0.99047,0.17734,0.03303,0.01321,0.03115
0.00515,0.03366,0.00988,0.03556,0.93433,0.27418,0.98714,0.20311,0.03854,0.01131,0.04072
0.00581,0.03824,0.00752,0.03543,1.06131,0.20862,0.98335,0.22888,0.0556,0.01093,0.05152
0.00646,0.03402,0.00584,0.03527,0.94425,0.16213,0.97912,0.25466,0.06124,0.01051,0.0635
0.00712,0.03452,0.00501,0.03511,0.95818,0.13893,0.97446,0.28043,0.07535,0.01093,0.07663
0.00777,0.03513,0.00435,0.03492,0.97509,0.1208,0.96938,0.3062,0.09142,0.01133,0.09089
0.00842,0.0334,0.00382,0.03473,0.92716,0.10592,0.96391,0.33198,0.10218,0.01167,0.10623
0.00908,0.03396,0.0035,0.03452,0.94254,0.09726,0.95806,0.35775,0.12063,0.01245,0.12262
0.00973,0.03368,0.00322,0.03429,0.9349,0.08927,0.95183,0.38352,0.13751,0.01313,0.14
0.01039,0.03326,0.00295,0.03405,0.9231,0.08184,0.94524,0.4093,0.15464,0.01371,0.15835
0.01104,0.03364,0.00273,0.0338,0.93375,0.07574,0.9383,0.43507,0.17674,0.01434,0.17761
0.01169,0.03394,0.00254,0.03354,0.94193,0.07062,0.93104,0.46084,0.20004,0.015,0.19773
0.01235,0.03334,0.00248,0.03327,0.92533,0.06886,0.92346,0.48661,0.21911,0.01631,0.21867
0.013,0.032,0.00238,0.03299,0.88823,0.06597,0.91557,0.51239,0.2332,0.01732,0.24038
0.01366,0.03216,0.00222,0.03269,0.89259,0.06171,0.9074,0.53816,0.25851,0.01787,0.2628
0.01431,0.03203,0.00216,0.03239,0.88892,0.06009,0.89895,0.56393,0.2827,0.01911,0.28588
0.01496,0.03232,0.00211,0.03207,0.89722,0.05847,0.89024,0.58971,0.31201,0.02033,0.30958
0.01562,0.03191,0.00204,0.03175,0.88577,0.05669,0.88128,0.61548,0.33554,0.02148,0.33384
0.01627,0.03164,0.002,0.03142,0.87835,0.0555,0.87208,0.64125,0.36118,0.02282,0.3586
0.01693,0.03009,0.00193,0.03108,0.83528,0.05354,0.86267,0.66703,0.37164,0.02382,0.38382
0.01758,0.03132,0.00189,0.03073,0.86931,0.05243,0.85304,0.6928,0.41724,0.02517,0.40943
0.01823,0.03015,0.00184,0.03038,0.83695,0.05104,0.84323,0.71857,0.43216,0.02635,0.4354
0.01889,0.02937,0.00178,0.03002,0.81529,0.04943,0.83323,0.74434,0.45171,0.02739,0.46165
0.01954,0.03005,0.00175,0.02965,0.83417,0.04846,0.82307,0.77012,0.49473,0.02874,0.48815
0.0202,0.02949,0.00172,0.02928,0.81849,0.04769,0.81276,0.79589,0.51846,0.03021,0.51483
0.02085,0.02869,0.00167,0.0289,0.79644,0.04638,0.80231,0.82166,0.5377,0.03131,0.54166
0.0215,0.02904,0.00165,0.02852,0.80604,0.04585,0.79173,0.84744,0.57885,0.03293,0.56858
0.02216,0.02807,0.00161,0.02814,0.77902,0.04469,0.78104,0.87321,0.594,0.03408,0.59554
0.02281,0.02774,0.00159,0.02775,0.77007,0.04411,0.77026,0.89898,0.62235,0.03565,0.6225
0.02347,0.02764,0.00157,0.02736,0.76718,0.04369,0.75939,0.92476,0.65607,0.03736,0.64941
0.02412,0.02676,0.00154,0.02696,0.7427,0.04278,0.74846,0.95053,0.67103,0.03865,0.67623
0.02477,0.02682,0.00152,0.02657,0.7443,0.04227,0.73746,0.9763,0.70944,0.04029,0.70292
0.02543,0.02668,0.0015,0.02617,0.74049,0.04167,0.72643,1.00207,0.74357,0.04184,0.72945
0.02608,0.02593,0.00147,0.02577,0.71978,0.04089,0.71537,1.02785,0.76043,0.0432,0.75576
0.02674,0.02517,0.00145,0.02537,0.69875,0.04037,0.70429,1.05362,0.77569,0.04482,0.78184
0.02739,0.02558,0.00142,0.02497,0.71015,0.03946,0.69319,1.07939,0.82739,0.04598,0.80763
0.02804,0.02496,0.0014,0.02457,0.69293,0.03874,0.6821,1.10517,0.84634,0.04731,0.83311
0.0287,0.02372,0.00138,0.02418,0.65848,0.03835,0.67102,1.13094,0.84221,0.04905,0.85825
0.02935,0.02342,0.00136,0.02378,0.64994,0.03788,0.65995,1.15671,0.86961,0.05068,0.88301
0.03001,0.02353,0.00135,0.02338,0.6531,0.03738,0.64892,1.18249,0.9132,0.05227,0.90736
0.03066,0.02373,0.00134,0.02298,0.65876,0.03712,0.63792,1.20826,0.96171,0.0542,0.93129
0.03131,0.02306,0.00132,0.02259,0.64008,0.03671,0.62697,1.23403,0.97474,0.05591,0.95476
0.03197,0.02224,0.00131,0.0222,0.61733,0.03638,0.61607,1.2598,0.97977,0.05774,0.97777
0.03262,0.02168,0.00129,0.02181,0.60185,0.03589,0.60524,1.28558,0.99469,0.05932,1.00028
0.03328,0.02138,0.00129,0.02142,0.59343,0.03579,0.59448,1.31135,1.02048,0.06155,1.02229
0.03393,0.02109,0.0013,0.02103,0.58542,0.03607,0.5838,1.33712,1.04667,0.06449,1.04378
0.03458,0.02099,0.0013,0.02065,0.58267,0.03605,0.57322,1.3629,1.08231,0.06695,1.06475
0.03524,0.01987,0.0013,0.02027,0.5516,0.03611,0.56274,1.38867,1.0637,0.06964,1.0852
0.03589,0.0197,0.00132,0.0199,0.54682,0.03659,0.55238,1.41444,1.09399,0.07321,1.10511
0.03655,0.01942,0.00134,0.01953,0.53911,0.03706,0.54213,1.44022,1.11823,0.07688,1.1245
0.0372,0.01954,0.00135,0.01917,0.54242,0.03744,0.53201,1.46599,1.16572,0.08046,1.14336
0.03785,0.0187,0.00134,0.01881,0.51917,0.0372,0.52204,1.49176,1.15533,0.08279,1.16172
0.03851,0.01806,0.00131,0.01845,0.50119,0.03641,0.51221,1.51753,1.1542,0.08384,1.17958
0.03916,0.01812,0.0013,0.01811,0.50301,0.03595,0.50254,1.54331,1.19806,0.08562,1.19694
0.03982,0.01793,0.00128,0.01776,0.4978,0.03544,0.49302,1.56908,1.2256,0.08726,1.21381
0.04047,0.01762,0.00127,0.01742,0.48916,0.03536,0.48365,1.59485,1.24422,0.08995,1.23018
0.04112,0.01723,0.00126,0.01709,0.47822,0.03496,0.47443,1.62063,1.25601,0.09183,1.24606
0.04178,0.01711,0.00124,0.01677,0.47478,0.03444,0.46537,1.6464,1.28695,0.09334,1.26145
0.04243,0.0164,0.00125,0.01645,0.45527,0.0346,0.45646,1.67217,1.27301,0.09676,1.27634
0.04309,0.01684,0.00123,0.01613,0.46736,0.03418,0.44771,1.69795,1.34741,0.09855,1.29075
0.04374,0.01547,0.00123,0.01582,0.42933,0.03409,0.43911,1.72372,1.27564,0.10129,1.30469
0.04439,0.01526,0.00122,0.01552,0.42356,0.03398,0.43067,1.74949,1.29641,0.10401,1.31815
0.04505,0.01465,0.00121,0.01522,0.4066,0.03352,0.42238,1.77526,1.28142,0.10564,1.33114
0.0457,0.01441,0.0012,0.01492,0.40002,0.03324,0.41424,1.80104,1.29757,0.10782,1.34369
0.04636,0.01434,0.00123,0.01464,0.39807,0.03404,0.40626,1.82681,1.32847,0.11359,1.35579
0.04701,0.01501,0.00124,0.01435,0.41658,0.03446,0.39844,1.85258,1.42972,0.11828,1.36746
0.04766,0.01394,0.00126,0.01408,0.387,0.03493,0.39077,1.87836,1.36543,0.12324,1.37872
0.04832,0.01363,0.00126,0.01381,0.37843,0.03498,0.38326,1.90413,1.37206,0.12684,1.38958
0.04897,0.01341,0.00126,0.01354,0.37228,0.03492,0.3759,1.9299,1.38655,0.13007,1.40006
0.04963,0.01303,0.00127,0.01328,0.36167,0.03527,0.3687,1.95568,1.38326,0.1349,1.41017
0.05028,0.01299,0.00127,0.01303,0.36044,0.03537,0.36166,1.98145,1.41513,0.13888,1.41993
0.05093,0.01262,0.00128,0.01278,0.3504,0.03555,0.35478,2.00722,1.41172,0.14321,1.42937
0.05159,0.01302,0.00129,0.01254,0.36126,0.03589,0.34805,2.03299,1.4931,0.14835,1.43851
0.05224,0.01242,0.00129,0.0123,0.34464,0.03572,0.34147,2.05877,1.46076,0.15142,1.44735
0.0529,0.01242,0.00129,0.01207,0.34479,0.0358,0.33505,2.08454,1.4982,0.15557,1.4559
0.05355,0.01157,0.00129,0.01184,0.32103,0.03581,0.32878,2.11031,1.4297,0.15946,1.46418
0.0542,0.01123,0.0013,0.01162,0.31168,0.03597,0.32265,2.13609,1.42216,0.16414,1.47219
0.05486,0.01175,0.0013,0.01141,0.32605,0.0361,0.31666,2.16186,1.52385,0.1687,1.47995
0.05551,0.01093,0.00129,0.0112,0.3034,0.03594,0.31081,2.18763,1.452,0.17198,1.48747
0.05617,0.01037,0.0013,0.01099,0.28782,0.03604,0.3051,2.21341,1.41006,0.17658,1.49475
0.05682,0.01075,0.0013,0.01079,0.2984,0.03609,0.29953,2.23918,1.49616,0.18095,1.50181
0.05747,0.01081,0.00129,0.0106,0.30009,0.03585,0.29409,2.26495,1.53944,0.18392,1.50866
0.05813,0.01013,0.00129,0.0104,0.28123,0.03572,0.28877,2.29072,1.47573,0.18744,1.51531
0.05878,0.01045,0.00128,0.01022,0.28999,0.03564,0.28358,2.3165,1.55613,0.19126,1.52176
0.05944,0.00986,0.00127,0.01003,0.27373,0.03521,0.27852,2.34227,1.50173,0.19318,1.52802
0.06009,0.00998,0.00126,0.00986,0.27703,0.03502,0.27358,2.36804,1.55345,0.19639,1.53412
0.06074,0.00917,0.00127,0.00968,0.2544,0.03516,0.26875,2.39382,1.45779,0.20149,1.54004
0.0614,0.00936,0.00125,0.00951,0.25984,0.03478,0.26404,2.41959,1.5212,0.20363,1.54581
0.06205,0.00934,0.00126,0.00935,0.25913,0.03493,0.25944,2.44536,1.54957,0.20885,1.55142
0.06271,0.00888,0.00126,0.00919,0.24641,0.03495,0.25496,2.47114,1.50468,0.21343,1.55689
0.06336,0.00898,0.00125,0.00903,0.24917,0.03465,0.25058,2.49691,1.55345,0.21606,1.56223
0.06401,0.00879,0.00125,0.00887,0.24394,0.03476,0.2463,2.52268,1.55241,0.22118,1.56743
0.06467,0.00856,0.00125,0.00872,0.23761,0.03468,0.24212,2.54845,1.54318,0.22524,1.57251
0.06532,0.0088,0.00124,0.00858,0.24424,0.03434,0.23805,2.57423,1.6185,0.22753,1.57747
0.06598,0.00888,0.00124,0.00843,0.24649,0.03437,0.23407,2.6,1.66626,0.23233,1.58233
0.06663,0.00811,0.00122,0.00829,0.22504,0.03391,0.23019,2.62577,1.55155,0.23383,1.58708
0.06728,0.00827,0.00122,0.00816,0.22964,0.034,0.2264,2.65155,1.61454,0.23903,1.59175
0.06794,0.00837,0.00122,0.00802,0.23237,0.03387,0.2227,2.67732,1.66562,0.24279,1.59633
0.06859,0.00763,0.00121,0.00789,0.21167,0.03369,0.21909,2.70309,1.54659,0.24614,1.60082
0.06925,0.0079,0.00121,0.00777,0.2194,0.03371,0.21556,2.72887,1.63384,0.25106,1.60524
0.0699,0.00742,0.00121,0.00764,0.20583,0.03354,0.21212,2.75464,1.56184,0.25453,1.60959
0.07055,0.00747,0.00121,0.00752,0.20725,0.03349,0.20876,2.78041,1.60215,0.25887,1.61388
0.07121,0.00729,0.00122,0.0074,0.20241,0.03374,0.20548,2.80618,1.59392,0.2657,1.6181
0.07186,0.00692,0.0012,0.00729,0.19219,0.03321,0.20228,2.83196,1.54139,0.26634,1.62226
0.07252,0.00755,0.00119,0.00717,0.20949,0.03314,0.19915,2.85773,1.71082,0.27068,1.62636
0.07317,0.00688,0.00119,0.00706,0.19104,0.03312,0.19609,2.8835,1.58846,0.27539,1.6304
0.07382,0.00714,0.00118,0.00696,0.19829,0.03288,0.1931,2.90928,1.67831,0.27829,1.63439
0.07448,0.00686,0.00119,0.00685,0.1905,0.03293,0.19018,2.93505,1.64108,0.28371,1.63832
0.07513,0.00698,0.00118,0.00675,0.19373,0.03263,0.18733,2.96082,1.69837,0.28601,1.6422
0.07579,0.00724,0.00117,0.00665,0.20084,0.03254,0.18454,2.9866,1.79142,0.29028,1.64601
0.07644,0.0066,0.00117,0.00655,0.18329,0.03255,0.18181,3.01237,1.6632,0.29536,1.64977
0.07709,0.00618,0.00117,0.00645,0.17156,0.03258,0.17913,3.03814,1.58353,0.30075,1.65346
0.07775,0.00633,0.00117,0.00636,0.17571,0.03242,0.17652,3.06391,1.64947,0.30436,1.65709
0.0784,0.00608,0.00117,0.00627,0.16889,0.03251,0.17396,3.08969,1.61221,0.31032,1.66067
0.07906,0.00677,0.00116,0.00618,0.188,0.0323,0.17146,3.11546,1.82476,0.31347,1.66421
0.07971,0.00634,0.00116,0.00609,0.17603,0.03214,0.16901,3.14123,1.73694,0.31718,1.6677
0.08036,0.00585,0.00116,0.006,0.16228,0.03207,0.16662,3.16701,1.62764,0.32169,1.67116
0.08102,0.00574,0.00115,0.00592,0.15942,0.03206,0.16427,3.19278,1.62514,0.32677,1.67457
0.08167,0.00583,0.00115,0.00584,0.1619,0.03192,0.16198,3.21855,1.67718,0.33065,1.67796
0.08233,0.00595,0.00115,0.00575,0.16515,0.03179,0.15973,3.24433,1.73827,0.33458,1.68131
0.08298,0.00603,0.00114,0.00568,0.16725,0.03164,0.15754,3.2701,1.78851,0.33836,1.68464
0.08363,0.00567,0.00114,0.0056,0.15742,0.0316,0.15539,3.29587,1.71002,0.34323,1.68794
0.08429,0.00534,0.00113,0.00552,0.14819,0.03147,0.15328,3.32164,1.63504,0.34717,1.69121
0.08494,0.00544,0.00113,0.00545,0.15102,0.03143,0.15122,3.34742,1.69225,0.35214,1.69446
0.0856,0.00542,0.00114,0.00538,0.15041,0.03159,0.1492,3.37319,1.71147,0.35949,1.69769
0.08625,0.00592,0.00113,0.0053,0.16441,0.03134,0.14723,3.39896,1.8994,0.3621,1.70089
0.0869,0.00518,0.00113,0.00523,0.1439,0.03139,0.14529,3.42474,1.68775,0.36817,1.70407
0.08756,0.00478,0.00112,0.00517,0.13264,0.03116,0.14339,3.45051,1.57918,0.37096,1.70722
0.08821,0.00543,0.00112,0.0051,0.15072,0.03119,0.14153,3.47628,1.82144,0.37692,1.71034
0.08887,0.00529,0.00111,0.00503,0.14685,0.03094,0.13971,3.50206,1.80107,0.3795,1.71343
0.08952,0.00491,0.00111,0.00497,0.13635,0.03093,0.13792,3.52783,1.697,0.38492,1.71648
0.09017,0.00491,0.00111,0.00491,0.13632,0.03083,0.13617,3.5536,1.72146,0.38938,1.71951
0.09083,0.00489,0.00111,0.00484,0.13563,0.03068,0.13445,3.57938,1.73772,0.39307,1.7225
0.09148,0.00457,0.00111,0.00478,0.12688,0.03077,0.13276,3.60515,1.64907,0.39995,1.72548
0.09214,0.00484,0.00116,0.00472,0.13422,0.03225,0.1311,3.63092,1.76956,0.42522,1.72843
0.09279,0.00456,0.00118,0.00466,0.12663,0.03285,0.12948,3.65669,1.69317,0.43919,1.73136
0.09344,0.00482,0.00114,0.00461,0.1337,0.03164,0.12789,3.68247,1.81303,0.42907,1.73427
0.0941,0.00444,0.00113,0.00455,0.12326,0.03132,0.12633,3.70824,1.69496,0.43069,1.73717
0.09475,0.00478,0.00112,0.0045,0.13272,0.03113,0.1248,3.73401,1.85048,0.434,1.74005
0.09541,0.00485,0.00111,0.00444,0.13457,0.03092,0.1233,3.75979,1.9023,0.43715,1.74292
0.09606,0.00479,0.00111,0.00439,0.13287,0.03082,0.12182,3.78556,1.90407,0.4417,1.74578
0.09671,0.00447,0.00111,0.00434,0.12418,0.03076,0.12038,3.81133,1.8039,0.44687,1.74862
0.09737,0.00446,0.0011,0.00429,0.12385,0.03063,0.11896,3.83711,1.82352,0.45092,1.75146
0.09802,0.00447,0.00109,0.00424,0.12411,0.0303,0.11756,3.86288,1.85198,0.45218,1.75428
0.09868,0.00421,0.00108,0.00419,0.11681,0.03004,0.1162,3.88865,1.7664,0.45419,1.7571
0.09933,0.00426,0.00107,0.00414,0.1183,0.02978,0.11486,3.91442,1.81275,0.45625,1.7599
0.09998,0.00399,0.00108,0.00409,0.11062,0.02991,0.11354,3.9402,1.71733,0.46439,1.76269
0.10064,0.0041,0.00108,0.00404,0.11376,0.02984,0.11224,3.96597,1.78938,0.46943,1.76546
0.10129,0.00371,0.00108,0.004,0.10299,0.02996,0.11097,3.99174,1.64108,0.47739,1.76822
0.10195,0.00376,0.00108,0.00395,0.10445,0.02984,0.10972,4.01752,1.6858,0.4817,1.77096
0.1026,0.00386,0.00108,0.00391,0.10715,0.02996,0.10849,4.04329,1.75175,0.48973,1.77369
0.10325,0.00382,0.00107,0.00387,0.10599,0.02965,0.10729,4.06906,1.75482,0.49098,1.7764
0.10391,0.0034,0.00106,0.00382,0.0944,0.02956,0.1061,4.09484,1.58279,0.49563,1.77909
0.10456,0.00391,0.00106,0.00378,0.10841,0.02949,0.10494,4.12061,1.84068,0.50065,1.78178
0.10522,0.00333,0.00106,0.00374,0.0925,0.02939,0.10379,4.14638,1.59025,0.50526,1.78446
0.10587,0.00362,0.00106,0.0037,0.10035,0.02932,0.10267,4.17215,1.74679,0.51039,1.78712
0.10652,0.00386,0.00105,0.00366,0.10722,0.02914,0.10156,4.19793,1.88952,0.51359,1.78978
0.10718,0.00428,0.00109,0.00362,0.11867,0.03016,0.10048,4.2237,2.11705,0.53803,1.79244
0.10783,0.00378,0.00111,0.00358,0.10492,0.0309,0.09941,4.24947,1.89472,0.55805,1.79509
0.10849,0.00388,0.00114,0.00354,0.10767,0.03153,0.09836,4.27525,1.96798,0.57625,1.79774
0.10914,0.00324,0.00115,0.00351,0.08981,0.03195,0.09732,4.30102,1.66132,0.59095,1.80038
0.10979,0.0033,0.00117,0.00347,0.09166,0.03243,0.09631,4.32679,1.7159,0.60709,1.80303
0.11045,0.00355,0.00119,0.00343,0.09862,0.03291,0.09531,4.35257,1.86839,0.62338,1.80567
0.1111,0.00346,0.0012,0.0034,0.09594,0.03328,0.09433,4.37834,1.83906,0.63795,1.8083
0.11176,0.00346,0.00118,0.00336,0.09595,0.03281,0.09337,4.40411,1.86114,0.63641,1.81094
0.11241,0.00346,0.00114,0.00333,0.09595,0.03175,0.09242,4.42988,1.88292,0.62311,1.81357
0.11306,0.00306,0.00113,0.0033,0.08484,0.03125,0.09148,4.45566,1.68439,0.62035,1.81619
0.11372,0.00304,0.00111,0.00326,0.08435,0.0308,0.09056,4.48143,1.69393,0.61856,1.81882
0.11437,0.0035,0.0011,0.00323,0.09718,0.0306,0.08966,4.5072,1.97419,0.62156,1.82143
0.11503,0.00324,0.00109,0.0032,0.08999,0.03013,0.08877,4.53298,1.84907,0.61911,1.82404
0.11568,0.00312,0.00108,0.00317,0.08669,0.03008,0.08789,4.55875,1.80154,0.62505,1.82665
0.11633,0.00362,0.00108,0.00314,0.10042,0.02988,0.08703,4.58452,2.11053,0.62798,1.82925
0.11699,0.00331,0.00107,0.00311,0.09198,0.02965,0.08618,4.6103,1.95491,0.63011,1.83184
0.11764,0.00359,0.00106,0.00307,0.09964,0.02944,0.08535,4.63607,2.14153,0.6328,1.83443
0.1183,0.00298,0.00105,0.00305,0.08264,0.02925,0.08453,4.66184,1.79605,0.63576,1.83703
0.11895,0.00309,0.00105,0.00302,0.08575,0.02906,0.08372,4.68761,1.88436,0.63857,1.83962
0.1196,0.00277,0.00104,0.00299,0.07683,0.02889,0.08292,4.71339,1.70691,0.64184,1.84221
0.12026,0.00277,0.00104,0.00296,0.07688,0.02876,0.08214,4.73916,1.7266,0.64593,1.84479
0.12091,0.00299,0.00102,0.00293,0.08288,0.02838,0.08137,4.76493,1.8818,0.64435,1.84738
0.12157,0.00282,0.00102,0.0029,0.07838,0.02843,0.08061,4.79071,1.79899,0.65259,1.84997
0.12222,0.00298,0.00102,0.00288,0.08261,0.02822,0.07986,4.81648,1.91635,0.65462,1.85256
0.12287,0.00274,0.00101,0.00285,0.07602,0.02815,0.07912,4.84225,1.7824,0.65998,1.85514
0.12353,0.00304,0.00101,0.00282,0.08431,0.02808,0.07839,4.86803,1.99792,0.66544,1.85773
0.12418,0.00257,0.00101,0.0028,0.07127,0.0281,0.07768,4.8938,1.70698,0.67293,1.86031
0.12484,0.00298,0.00101,0.00277,0.08283,0.02795,0.07697,4.91957,2.00462,0.67643,1.86289
0.12549,0.00318,0.00101,0.00275,0.08821,0.02796,0.07628,4.94534,2.15733,0.68387,1.86547
0.12614,0.00293,0.00101,0.00272,0.08136,0.02796,0.07559,4.97112,2.01057,0.6909,1.86804
0.1268,0.00292,0.00101,0.0027,0.08101,0.02791,0.07492,4.99689,2.02263,0.697,1.87061
0.12745,0.00298,0.001,0.00268,0.08261,0.02764,0.07425,5.02266,2.084,0.69719,1.87317
0.12811,0.00271,0.001,0.00265,0.07512,0.02767,0.0736,5.04844,1.91453,0.70523,1.87572
0.12876,0.00262,0.00099,0.00263,0.07259,0.02758,0.07295,5.07421,1.8691,0.71003,1.87827
0.12941,0.00298,0.00099,0.00261,0.08284,0.02761,0.07231,5.09998,2.15474,0.71808,1.88081
0.13007,0.00233,0.00099,0.00258,0.06472,0.02743,0.07168,5.12576,1.70028,0.72075,1.88334
0.13072,0.00246,0.00099,0.00256,0.06824,0.02741,0.07106,5.15153,1.81091,0.72755,1.88587
0.13138,0.00262,0.00099,0.00254,0.07262,0.02738,0.07045,5.1773,1.94645,0.73393,1.88839
0.13203,0.00242,0.00099,0.00252,0.06721,0.02741,0.06985,5.20307,1.81952,0.74201,1.89091
0.13268,0.00282,0.00098,0.00249,0.07814,0.02712,0.06925,5.22885,2.13631,0.74144,1.89342
0.13334,0.00232,0.00098,0.00247,0.06445,0.02722,0.06867,5.25462,1.77948,0.75144,1.89593
0.13399,0.00266,0.00098,0.00245,0.07374,0.02708,0.06809,5.28039,2.05603,0.75504,1.89844
0.13465,0.00282,0.00097,0.00243,0.07828,0.02703,0.06752,5.30617,2.20398,0.7611,1.90094
0.1353,0.00206,0.00098,0.00241,0.05714,0.02708,0.06695,5.33194,1.62443,0.77001,1.90343
0.13595,0.00245,0.00097,0.00239,0.06812,0.02694,0.0664,5.35771,1.95546,0.77342,1.90592
0.13661,0.00235,0.00097,0.00237,0.06523,0.02688,0.06585,5.38349,1.89045,0.77899,1.9084
0.13726,0.00223,0.00097,0.00235,0.06192,0.02691,0.06531,5.40926,1.81176,0.7873,1.91087
0.13792,0.00238,0.00097,0.00233,0.06606,0.02684,0.06477,5.43503,1.95129,0.79282,1.91333
0.13857,0.00216,0.00097,0.00231,0.05992,0.0268,0.06424,5.4608,1.78688,0.79914,1.91579
0.13922,0.00213,0.00096,0.0023,0.05914,0.0267,0.06372,5.48658,1.7803,0.80363,1.91823
0.13988,0.00177,0.00096,0.00228,0.04926,0.02662,0.06321,5.51235,1.49675,0.80888,1.92067
0.14053,0.00252,0.00096,0.00226,0.06993,0.02653,0.0627,5.53812,2.14495,0.81362,1.92309
0.14119,0.00217,0.00095,0.00224,0.06029,0.02648,0.0622,5.5639,1.86655,0.8198,1.9255
0.14184,0.00216,0.00095,0.00222,0.06003,0.02635,0.0617,5.58967,1.87547,0.82316,1.9279
0.14249,0.00249,0.00095,0.00221,0.06919,0.0264,0.06121,5.61544,2.18173,0.83238,1.93029
0.14315,0.00219,0.00095,0.00219,0.06083,0.02644,0.06073,5.64122,1.9357,0.84142,1.93266
0.1438,0.00215,0.00095,0.00217,0.05958,0.02637,0.06025,5.66699,1.9134,0.84672,1.93503
0.14446,0.00232,0.00095,0.00215,0.06446,0.02629,0.05978,5.69276,2.08911,0.85203,1.93739
0.14511,0.002,0.00095,0.00214,0.05546,0.02626,0.05932,5.71853,1.81355,0.85862,1.93973
0.14576,0.00167,0.00095,0.00212,0.04631,0.02626,0.05886,5.74431,1.52804,0.86644,1.94207
0.14642,0.0019,0.00094,0.0021,0.05284,0.0262,0.0584,5.77008,1.7594,0.87225,1.94439
0.14707,0.0018,0.00094,0.00209,0.04994,0.02613,0.05795,5.79585,1.67757,0.8777,1.9467
0.14773,0.0019,0.00094,0.00207,0.05281,0.02608,0.05751,5.82163,1.78967,0.88374,1.949
0.14838,0.00158,0.00094,0.00206,0.04398,0.02606,0.05707,5.8474,1.5037,0.891,1.95129
0.14903,0.00189,0.00093,0.00204,0.05252,0.0259,0.05663,5.87317,1.81159,0.89354,1.95357
0.14969,0.00228,0.00093,0.00202,0.06331,0.02576,0.05621,5.89895,2.20287,0.89641,1.95584
0.15034,0.00197,0.00093,0.00201,0.0548,0.02591,0.05578,5.92472,1.92365,0.90945,1.95809
0.151,0.00172,0.00093,0.00199,0.0477,0.02578,0.05536,5.95049,1.68908,0.91277,1.96033
0.15165,0.00212,0.00093,0.00198,0.05885,0.02587,0.05495,5.97626,2.10194,0.92383,1.96255
0.1523,0.0019,0.00093,0.00196,0.05271,0.0258,0.05454,6.00204,1.89896,0.92938,1.96475
0.15296,0.00198,0.00093,0.00195,0.05487,0.02571,0.05413,6.02781,1.99356,0.93424,1.96694
0.15361,0.00156,0.00093,0.00194,0.04328,0.02577,0.05373,6.05358,1.58594,0.94446,1.96912
0.15427,0.0017,0.00093,0.00192,0.0473,0.02571,0.05334,6.07936,1.74829,0.95035,1.97128
0.15492,0.00161,0.00092,0.00191,0.04466,0.02556,0.05295,6.10513,1.66455,0.95284,1.97342
0.15557,0.00185,0.00092,0.00189,0.0513,0.02552,0.05256,6.1309,1.92835,0.95933,1.97556
0.15623,0.00176,0.00092,0.00188,0.04878,0.02553,0.05217,6.15668,1.84892,0.96787,1.97767
0.15688,0.00163,0.00091,0.00187,0.04519,0.02539,0.0518,6.18245,1.72728,0.97035,1.97978
0.15754,0.00217,0.00092,0.00185,0.06018,0.0254,0.05142,6.20822,2.31952,0.97908,1.98187
0.15819,0.00193,0.00091,0.00184,0.05367,0.02536,0.05105,6.23399,2.08576,0.98539,1.98395
0.15884,0.00193,0.00091,0.00183,0.05346,0.02523,0.05068,6.25977,2.0949,0.98877,1.98602
0.1595,0.00163,0.00091,0.00181,0.04523,0.02529,0.05032,6.28554,1.78695,0.99904,1.98808
0.16015,0.00212,0.00091,0.0018,0.05893,0.02517,0.04996,6.31131,2.34747,1.00248,1.99013
0.16081,0.00156,0.00091,0.00179,0.04335,0.02522,0.04961,6.33709,1.74069,1.01262,1.99217
0.16146,0.00189,0.00091,0.00177,0.05235,0.02519,0.04926,6.36286,2.11925,1.01987,1.9942
0.16211,0.00149,0.00091,0.00176,0.04131,0.02515,0.04891,6.38863,1.68599,1.02629,1.99622
0.16277,0.00166,0.0009,0.00175,0.04606,0.02505,0.04857,6.41441,1.89495,1.03069,1.99823
0.16342,0.0014,0.0009,0.00174,0.03886,0.02499,0.04823,6.44018,1.61177,1.03658,2.00023
0.16408,0.00177,0.0009,0.00173,0.04905,0.02497,0.04789,6.46595,2.05057,1.04398,2.00222
0.16473,0.00206,0.0009,0.00171,0.0571,0.02494,0.04756,6.49172,2.40636,1.05083,2.00421
0.16538,0.00164,0.00089,0.0017,0.04545,0.02481,0.04723,6.5175,1.93054,1.05376,2.00618
0.16604,0.0019,0.00089,0.00169,0.05267,0.02481,0.0469,6.54327,2.25483,1.06218,2.00815
0.16669,0.00168,0.00089,0.00168,0.0467,0.0247,0.04658,6.56904,2.0152,1.06607,2.01011
0.16735,0.00174,0.00089,0.00167,0.04816,0.02472,0.04626,6.59482,2.09471,1.0752,2.01206
0.168,0.00181,0.00089,0.00166,0.05032,0.02466,0.04595,6.62059,2.20557,1.08111,2.01401
0.16865,0.00154,0.00089,0.00164,0.04284,0.02471,0.04564,6.64636,1.89241,1.09176,2.01594
0.16931,0.00181,0.00089,0.00163,0.05015,0.02469,0.04533,6.67214,2.2324,1.09912,2.01788
0.16996,0.00168,0.00088,0.00162,0.04657,0.02456,0.04502,6.69791,2.08926,1.1016,2.0198
0.17062,0.00132,0.00089,0.00161,0.0366,0.02457,0.04472,6.72368,1.65465,1.11096,2.02172
0.17127,0.00173,0.00089,0.0016,0.04807,0.02457,0.04442,6.74945,2.18983,1.11925,2.02363
0.17192,0.00143,0.00088,0.00159,0.03958,0.02455,0.04413,6.77523,1.81709,1.12709,2.02554
0.17258,0.00152,0.00088,0.00158,0.04213,0.02454,0.04383,6.801,1.94882,1.13495,2.02744
0.17323,0.00169,0.00088,0.00157,0.04693,0.02439,0.04354,6.82677,2.18728,1.1367,2.02934
0.17388,0.00129,0.00088,0.00156,0.03572,0.02442,0.04326,6.85255,1.67714,1.14666,2.03123
0.17454,0.00176,0.00087,0.00155,0.04896,0.02422,0.04297,6.87832,2.31624,1.14569,2.03312
0.17519,0.00157,0.00087,0.00154,0.04366,0.02417,0.04269,6.90409,2.08108,1.15228,2.035
0.17585,0.00143,0.00087,0.00153,0.03969,0.02424,0.04241,6.92987,1.90606,1.16411,2.03688
0.1765,0.00185,0.00087,0.00152,0.05137,0.02412,0.04214,6.95564,2.48554,1.16694,2.03875
0.17715,0.00151,0.00087,0.00151,0.042,0.02417,0.04187,6.98141,2.0472,1.17785,2.04061
0.17781,0.00142,0.00087,0.0015,0.03955,0.02418,0.0416,7.00718,1.94183,1.18744,2.04247
0.17846,0.0014,0.00087,0.00149,0.03899,0.02416,0.04133,7.03296,1.92861,1.19478,2.04432
0.17912,0.00162,0.00087,0.00148,0.04504,0.02405,0.04107,7.05873,2.24409,1.19819,2.04617
0.17977,0.00181,0.00087,0.00147,0.0501,0.02405,0.04081,7.0845,2.51471,1.20706,2.04801
0.18042,0.00131,0.00086,0.00146,0.03643,0.02382,0.04055,7.11028,1.84175,1.20448,2.04985
0.18108,0.00128,0.0009,0.00145,0.03543,0.02493,0.04029,7.13605,1.80418,1.26951,2.05169
0.18173,0.0014,0.00091,0.00144,0.03872,0.02538,0.04004,7.16182,1.98625,1.30155,2.05351
0.18239,0.00113,0.00093,0.00143,0.03131,0.02574,0.03978,7.1876,1.61776,1.3299,2.05534
0.18304,0.00124,0.00094,0.00142,0.03435,0.0261,0.03954,7.21337,1.78737,1.35788,2.05716
0.18369,0.00133,0.00095,0.00142,0.03684,0.02632,0.03929,7.23914,1.93037,1.37946,2.05898
0.18435,0.00117,0.00096,0.00141,0.03254,0.02658,0.03905,7.26491,1.71721,1.40282,2.06079
0.185,0.00168,0.00097,0.0014,0.04659,0.02687,0.0388,7.29069,2.47641,1.42843,2.0626
0.18566,0.00101,0.00094,0.00139,0.02807,0.02604,0.03856,7.31646,1.50256,1.39412,2.0644
0.18631,0.00116,0.00093,0.00138,0.03232,0.0257,0.03833,7.34223,1.74239,1.38533,2.0662
0.18696,0.00147,0.00091,0.00137,0.04094,0.0254,0.03809,7.36801,2.22242,1.37868,2.068
0.18762,0.00135,0.0009,0.00136,0.03761,0.025,0.03786,7.39378,2.05589,1.36673,2.06979
0.18827,0.00151,0.00089,0.00136,0.04178,0.02484,0.03763,7.41955,2.30002,1.36751,2.07158
0.18893,0.00132,0.00088,0.00135,0.03661,0.02454,0.0374,7.44533,2.02924,1.3603,2.07336
0.18958,0.00143,0.00088,0.00134,0.03956,0.02435,0.03718,7.4711,2.20805,1.35934,2.07514
0.19023,0.00107,0.00087,0.00133,0.02973,0.02426,0.03695,7.49687,1.67068,1.36321,2.07691
0.19089,0.00143,0.00087,0.00132,0.03966,0.02403,0.03673,7.52264,2.24409,1.35979,2.07869
0.19154,0.00115,0.00086,0.00132,0.03201,0.02384,0.03651,7.54842,1.82405,1.35832,2.08045
0.1922,0.00112,0.00086,0.00131,0.03111,0.02375,0.0363,7.57419,1.78446,1.36241,2.08221
0.19285,0.00125,0.00085,0.0013,0.03456,0.02372,0.03608,7.59996,1.99633,1.3702,2.08397
0.1935,0.00112,0.00085,0.00129,0.03116,0.02367,0.03587,7.62574,1.81192,1.37621,2.08572
0.19416,0.00106,0.00085,0.00128,0.0293,0.02366,0.03566,7.65151,1.71552,1.38508,2.08747
0.19481,0.00092,0.00085,0.00128,0.02554,0.02358,0.03545,7.67728,1.50532,1.38976,2.08921
0.19547,0.00123,0.00085,0.00127,0.03415,0.02359,0.03524,7.70306,2.02652,1.39974,2.09095
0.19612,0.00105,0.00085,0.00126,0.02912,0.02365,0.03503,7.72883,1.73962,1.41247,2.09269
0.19677,0.00105,0.00085,0.00125,0.02919,0.02352,0.03483,7.7546,1.75529,1.41413,2.09442
0.19743,0.00097,0.00084,0.00125,0.02706,0.02345,0.03463,7.78037,1.63803,1.41946,2.09615
0.19808,0.00123,0.00084,0.00124,0.03401,0.02344,0.03443,7.80615,2.0724,1.42827,2.09788
0.19874,0.00121,0.00085,0.00123,0.03355,0.02346,0.03423,7.83192,2.0578,1.43889,2.0996
0.19939,0.001,0.00084,0.00123,0.02772,0.02332,0.03403,7.85769,1.71171,1.43972,2.10132
0.20004,0.00114,0.00084,0.00122,0.03175,0.02324,0.03384,7.88347,1.97301,1.44406,2.10303
0.2007,0.00115,0.00084,0.00121,0.03189,0.02327,0.03365,7.90924,1.99521,1.45579,2.10474
0.20135,0.00133,0.00083,0.00121,0.03699,0.02311,0.03345,7.93501,2.32892,1.45481,2.10645
0.20201,0.00132,0.00084,0.0012,0.03665,0.02319,0.03327,7.96079,2.32271,1.46946,2.10815
0.20266,0.00122,0.00083,0.00119,0.03389,0.02301,0.03308,7.98656,2.16141,1.46753,2.10984
0.20331,0.00105,0.00083,0.00118,0.02925,0.023,0.03289,8.01233,1.87772,1.47663,2.11153
0.20397,0.00122,0.00083,0.00118,0.03392,0.02293,0.03271,8.03811,2.19131,1.48141,2.11322
0.20462,0.00131,0.00082,0.00117,0.03647,0.02287,0.03252,8.06388,2.37152,1.48709,2.1149
0.20528,0.0008,0.00083,0.00117,0.02207,0.02292,0.03234,8.08965,1.44453,1.50022,2.11657
0.20593,0.00108,0.00083,0.00116,0.02987,0.02292,0.03216,8.11542,1.96696,1.50929,2.11825
0.20658,0.00104,0.00082,0.00115,0.02889,0.02287,0.03198,8.1412,1.91488,1.51569,2.11991
0.20724,0.00134,0.00082,0.00115,0.03722,0.02286,0.03181,8.16697,2.48278,1.5246,2.12158
0.20789,0.0014,0.00082,0.00114,0.03894,0.02288,0.03163,8.19274,2.61368,1.53603,2.12324
0.20855,0.00101,0.00082,0.00113,0.02797,0.02282,0.03146,8.21852,1.88916,1.54115,2.12489
0.2092,0.00094,0.00082,0.00113,0.02622,0.02284,0.03129,8.24429,1.78236,1.55251,2.12654
0.20985,0.00112,0.00082,0.00112,0.03105,0.02273,0.03112,8.27006,2.12363,1.55425,2.12819
0.21051,0.00109,0.00081,0.00111,0.03038,0.02261,0.03095,8.29584,2.09074,1.55636,2.12983
0.21116,0.00057,0.00082,0.00111,0.01595,0.02263,0.03078,8.32161,1.1046,1.56686,2.13147
0.21182,0.00118,0.00081,0.0011,0.0327,0.0226,0.03061,8.34738,2.27846,1.57456,2.1331
0.21247,0.00083,0.00081,0.0011,0.02311,0.02257,0.03045,8.37315,1.62043,1.58213,2.13473
0.21312,0.00098,0.00081,0.00109,0.02727,0.02257,0.03028,8.39893,1.9234,1.59246,2.13636
0.21378,0.00123,0.00081,0.00109,0.03401,0.0225,0.03012,8.4247,2.41364,1.59687,2.13798
0.21443,0.00096,0.00081,0.00108,0.02671,0.0225,0.02996,8.45047,1.90733,1.60691,2.13959
0.21509,0.0008,0.00081,0.00107,0.02231,0.02253,0.0298,8.47625,1.6031,1.61854,2.14121
0.21574,0.00122,0.00081,0.00107,0.03393,0.02242,0.02964,8.50202,2.45272,1.62052,2.14281
0.21639,0.00068,0.00081,0.00106,0.01896,0.02244,0.02949,8.52779,1.3787,1.63182,2.14442
0.21705,0.00073,0.00081,0.00106,0.02015,0.0224,0.02933,8.55357,1.47428,1.63865,2.14602
0.2177,0.00037,0.0008,0.00105,0.01021,0.02234,0.02918,8.57934,0.75166,1.64452,2.14761
0.21836,0.00074,0.00081,0.00105,0.02045,0.02239,0.02902,8.60511,1.51446,1.65761,2.1492
0.21901,0.00122,0.0008,0.00104,0.03398,0.0223,0.02887,8.63088,2.53109,1.66083,2.15078
0.21966,0.00085,0.0008,0.00103,0.02355,0.02211,0.02872,8.65666,1.76504,1.65717,2.15236
0.22032,0.0012,0.0008,0.00103,0.03336,0.02212,0.02857,8.68243,2.51475,1.66763,2.15394
0.22097,0.00088,0.00079,0.00102,0.02446,0.02206,0.02842,8.7082,1.85496,1.67268,2.1555
0.22163,0.00064,0.0008,0.00102,0.0178,0.02212,0.02828,8.73398,1.35786,1.68702,2.15707
0.22228,0.00071,0.0008,0.00101,0.0196,0.0221,0.02813,8.75975,1.50362,1.696,2.15863
0.22293,0.00102,0.00079,0.00101,0.02826,0.02203,0.02799,8.78552,2.18088,1.70027,2.16018
0.22359,0.00103,0.0008,0.001,0.02864,0.02213,0.02784,8.8113,2.22371,1.7182,2.16173
0.22424,0.00066,0.00079,0.001,0.0184,0.02204,0.0277,8.83707,1.43669,1.72132,2.16328
0.2249,0.00048,0.00079,0.00099,0.01345,0.02206,0.02756,8.86284,1.05681,1.73306,2.16481
0.22555,0.00092,0.00079,0.00099,0.02562,0.02191,0.02742,8.88861,2.02431,1.73135,2.16635
0.2262,0.00091,0.00079,0.00098,0.02536,0.0219,0.02728,8.91439,2.01509,1.74002,2.16787
0.22686,0.00066,0.00079,0.00098,0.01841,0.02185,0.02714,8.94016,1.47174,1.74622,2.16939
0.22751,0.00094,0.00078,0.00097,0.02598,0.02178,0.02701,8.96593,2.08812,1.75085,2.17091
0.22817,0.00097,0.00078,0.00097,0.02692,0.02176,0.02687,8.99171,2.17665,1.75904,2.17241
0.22882,0.00117,0.00078,0.00096,0.03261,0.02178,0.02673,9.01748,2.65165,1.77134,2.17391
0.22947,0.00112,0.00078,0.00096,0.03111,0.02173,0.0266,9.04325,2.54396,1.77731,2.17541
0.23013,0.00094,0.00079,0.00095,0.02598,0.02201,0.02647,9.06903,2.13675,1.81054,2.17689
0.23078,0.00082,0.00082,0.00095,0.02279,0.02269,0.02634,9.0948,1.88527,1.87647,2.17837
0.23144,0.00102,0.00083,0.00094,0.02822,0.02309,0.0262,9.12057,2.34789,1.92106,2.17985
0.23209,0.00082,0.00085,0.00094,0.02275,0.02346,0.02607,9.14634,1.90297,1.96267,2.18132
0.23274,0.00088,0.00085,0.00093,0.02453,0.0237,0.02595,9.17212,2.06375,1.99424,2.18278
0.2334,0.00071,0.00086,0.00093,0.01962,0.02375,0.02582,9.19789,1.65982,2.00933,2.18423
0.23405,0.00061,0.00086,0.00093,0.01681,0.02376,0.02569,9.22366,1.4304,2.02131,2.18568
0.23471,0.00097,0.00086,0.00092,0.02691,0.0238,0.02556,9.24944,2.30181,2.0365,2.18712
0.23536,0.00071,0.00086,0.00092,0.01966,0.02398,0.02544,9.27521,1.69168,2.06259,2.18856
0.23601,0.00083,0.00086,0.00091,0.02296,0.02399,0.02532,9.30098,1.98596,2.07535,2.18999
0.23667,0.00107,0.00087,0.00091,0.02959,0.02409,0.02519,9.32676,2.57413,2.09591,2.19141
0.23732,0.00106,0.00087,0.0009,0.02939,0.02407,0.02507,9.35253,2.57061,2.10528,2.19283
0.23798,0.00071,0.00087,0.0009,0.01982,0.02408,0.02495,9.3783,1.74337,2.11788,2.19424
0.23863,0.00045,0.00087,0.00089,0.01251,0.02404,0.02483,9.40407,1.10606,2.12601,2.19565
0.23928,0.00091,0.00087,0.00089,0.02534,0.02419,0.02471,9.42985,2.25364,2.15062,2.19705
0.23994,0.00067,0.00087,0.00089,0.01859,0.02423,0.02459,9.45562,1.66215,2.16621,2.19844
0.24059,0.00047,0.00087,0.00088,0.013,0.02425,0.02447,9.48139,1.16892,2.17959,2.19983
0.24125,0.00079,0.00088,0.00088,0.02184,0.02438,0.02435,9.50717,1.97391,2.20329,2.20121
0.2419,0.00058,0.00088,0.00087,0.01612,0.02449,0.02424,9.53294,1.46514,2.2254,2.20258
0.24255,0.00062,0.00088,0.00087,0.01725,0.02455,0.02412,9.55871,1.57567,2.24268,2.20395
0.24321,0.00059,0.00089,0.00086,0.01641,0.02459,0.02401,9.58449,1.5071,2.2589,2.20532
0.24386,0.00088,0.00089,0.00086,0.02429,0.02465,0.02389,9.61026,2.24358,2.27627,2.20668
0.24452,0.00046,0.00089,0.00086,0.0128,0.02457,0.02378,9.63603,1.18879,2.28127,2.20803
0.24517,0.00047,0.00089,0.00085,0.01313,0.02471,0.02367,9.6618,1.22535,2.30692,2.20937
0.24582,0.00089,0.00089,0.00085,0.02481,0.02472,0.02356,9.68758,2.32857,2.31994,2.21071
0.24648,0.00096,0.00089,0.00084,0.02662,0.02468,0.02345,9.71335,2.51154,2.32838,2.21205
0.24713,0.00063,0.00089,0.00084,0.01761,0.02472,0.02334,9.73912,1.66987,2.34425,2.21338
0.24779,0.00078,0.00089,0.00084,0.02164,0.02467,0.02323,9.7649,2.06365,2.35214,2.2147
0.24844,0.00067,0.00089,0.00083,0.0187,0.02471,0.02312,9.79067,1.79246,2.36856,2.21602
0.24909,0.00089,0.00089,0.00083,0.02475,0.02463,0.02301,9.81644,2.38533,2.37349,2.21733
0.24975,0.0007,0.00089,0.00083,0.01944,0.02474,0.0229,9.84222,1.88274,2.39691,2.21864
0.2504,0.0007,0.00089,0.00082,0.01953,0.02484,0.0228,9.86799,1.90146,2.41897,2.21994
0.25106,0.00056,0.00089,0.00082,0.01546,0.02478,0.02269,9.89376,1.51339,2.42544,2.22123
0.25171,0.00083,0.00089,0.00081,0.02296,0.02482,0.02259,9.91953,2.2594,2.44185,2.22252
0.25236,0.00116,0.0009,0.00081,0.03225,0.02499,0.02248,9.94531,3.19019,2.47151,2.2238
0.25302,0.00088,0.0009,0.00081,0.02435,0.02505,0.02238,9.97108,2.42087,2.49054,2.22508
0.25367,0.00086,0.0009,0.0008,0.02385,0.02511,0.02228,9.99685,2.38379,2.50968,2.22635
0.25433,0.00111,0.00092,0.0008,0.03079,0.02567,0.02218,10.02263,3.09323,2.57854,2.22761
0.25498,0.00049,0.00096,0.0008,0.01368,0.02662,0.02207,10.0484,1.38105,2.68763,2.22887
0.25563,0.00082,0.00098,0.00079,0.02274,0.0273,0.02197,10.07417,2.30812,2.77015,2.23013
0.25629,0.00066,0.001,0.00079,0.01824,0.02787,0.02187,10.09995,1.8605,2.84286,2.23137
0.25694,0.0006,0.00102,0.00078,0.01673,0.02835,0.02178,10.12572,1.71547,2.90687,2.23262
0.2576,0.0005,0.00104,0.00078,0.01381,0.02889,0.02168,10.15149,1.42326,2.9771,2.23385
0.25825,0.00077,0.00106,0.00078,0.0214,0.02949,0.02158,10.17726,2.21635,3.05417,2.23509
0.2589,0.00066,0.00108,0.00077,0.01825,0.02987,0.02148,10.20304,1.89975,3.10965,2.23631
0.25956,0.00059,0.00108,0.00077,0.0163,0.03006,0.02139,10.22881,1.70542,3.14489,2.23754
0.26021,0.00064,0.00109,0.00077,0.01783,0.03027,0.02129,10.25458,1.87469,3.18291,2.23876
0.26087,0.00063,0.00111,0.00076,0.01758,0.03077,0.02119,10.28036,1.85822,3.25147,2.23997
0.26152,0.00132,0.00111,0.00076,0.03652,0.03067,0.0211,10.30613,3.87904,3.25786,2.24118
0.26217,0.0009,0.00112,0.00076,0.02512,0.03097,0.02101,10.3319,2.68149,3.30572,2.24239
0.26283,0.00066,0.00114,0.00075,0.01843,0.03153,0.02091,10.35768,1.97715,3.38278,2.24359
0.26348,0.00066,0.00113,0.00075,0.01845,0.0314,0.02082,10.38345,1.98937,3.38545,2.24479
0.26414,0.00042,0.00114,0.00075,0.01165,0.03163,0.02073,10.40922,1.26194,3.4267,2.24599
0.26479,0.00043,0.00116,0.00074,0.01187,0.03211,0.02064,10.43499,1.29274,3.496,2.24718
0.26544,0.00091,0.00116,0.00074,0.02521,0.03233,0.02055,10.46077,2.75907,3.53815,2.24837
0.2661,0.00089,0.00117,0.00074,0.02481,0.03251,0.02046,10.48654,2.72827,3.57542,2.24955
0.26675,0.00096,0.00118,0.00073,0.02659,0.03288,0.02037,10.51231,2.93848,3.63337,2.25074
0.26741,0.00078,0.00119,0.00073,0.0216,0.03305,0.02028,10.53809,2.39857,3.67067,2.25192
0.26806,0.0006,0.00119,0.00073,0.01675,0.03299,0.02019,10.56386,1.86949,3.68134,2.2531
0.26871,0.00062,0.0012,0.00072,0.01734,0.03328,0.0201,10.58963,1.94454,3.73249,2.25427
0.26937,0.00047,0.00121,0.00072,0.01318,0.03358,0.02002,10.61541,1.48493,3.78423,2.25545
0.27002,0.0004,0.00121,0.00072,0.01099,0.03345,0.01993,10.64118,1.24428,3.78768,2.25662
0.27068,0.00071,0.00122,0.00071,0.01963,0.034,0.01984,10.66695,2.23349,3.86841,2.25779
0.27133,0.00066,0.00123,0.00071,0.0183,0.03417,0.01976,10.69272,2.09177,3.9068,2.25895
0.27198,0.00041,0.00125,0.00071,0.01149,0.03462,0.01967,10.7185,1.31971,3.97724,2.26011
0.27264,0.00088,0.00126,0.00071,0.0244,0.03492,0.01959,10.74427,2.81684,4.0312,2.26127
0.27329,0.00058,0.00127,0.0007,0.01619,0.0352,0.0195,10.77004,1.87762,4.08289,2.26243
0.27395,0.00067,0.00128,0.0007,0.01872,0.03542,0.01942,10.79582,2.18147,4.12764,2.26358
0.2746,0.00029,0.00128,0.0007,0.00807,0.03549,0.01934,10.82159,0.94469,4.15636,2.26473
0.27525,0.00062,0.00129,0.00069,0.01734,0.03567,0.01926,10.84736,2.03999,4.19728,2.26588
0.27591,0.00098,0.00129,0.00069,0.02717,0.03589,0.01918,10.87314,3.21273,4.24257,2.26702
0.27656,0.00092,0.0013,0.00069,0.0255,0.03605,0.01909,10.89891,3.02876,4.28251,2.26816
0.27722,0.0004,0.0013,0.00069,0.0112,0.03618,0.01901,10.92468,1.33653,4.31777,2.2693
0.27787,0,0.00131,0.00068,0.00005,0.03636,0.01893,10.95045,0.00596,4.3604,2.27043
0.27852,0.00084,0.00132,0.00068,0.02324,0.03662,0.01885,10.97623,2.80046,4.4114,2.27157
0.27918,0.00129,0.00133,0.00068,0.03568,0.03686,0.01878,11.002,4.3187,4.46122,2.27269
0.27983,0.00104,0.00133,0.00067,0.02888,0.03695,0.0187,11.02777,3.51255,4.49392,2.27381
0.28049,0.00043,0.00135,0.00067,0.01192,0.03754,0.01862,11.05355,1.45627,4.58717,2.27493
0.28114,0.00014,0.00137,0.00067,0.00384,0.03813,0.01854,11.07932,0.47163,4.68062,2.27605
0.28179,0.00058,0.00137,0.00067,0.01602,0.03798,0.01846,11.10509,1.97556,4.68371,2.27716
0.28245,0.00024,0.0014,0.00066,0.00657,0.03879,0.01839,11.13087,0.8135,4.80642,2.27827
0.2831,0.00085,0.00141,0.00066,0.02368,0.03902,0.01831,11.15664,2.94694,4.85681,2.27937
0.28376,0.0005,0.00141,0.00066,0.01384,0.03918,0.01824,11.18241,1.73058,4.89936,2.28047
0.28441,0.00022,0.00144,0.00065,0.00615,0.03988,0.01816,11.20818,0.77256,5.00989,2.28156
0.28506,0.00022,0.00143,0.00065,0.00606,0.0398,0.01809,11.23396,0.76524,5.02238,2.28266
0.28572,0.00045,0.00144,0.00065,0.0125,0.03999,0.01801,11.25973,1.58497,5.06985,2.28374
0.28637,0.00019,0.00145,0.00065,0.00518,0.04018,0.01794,11.2855,0.65957,5.11774,2.28483
0.28703,0.00085,0.00146,0.00064,0.02362,0.04061,0.01787,11.31128,3.02256,5.19635,2.2859
0.28768,0.00098,0.00147,0.00064,0.02719,0.04079,0.01779,11.33705,3.49519,5.24303,2.28698
0.28833,0.00046,0.00147,0.00064,0.01277,0.04093,0.01772,11.36282,1.64854,5.28483,2.28805
0.28899,0.00066,0.00149,0.00064,0.01823,0.04135,0.01765,11.3886,2.36477,5.36291,2.28911
0.28964,0.00069,0.00148,0.00063,0.01908,0.04098,0.01758,11.41437,2.4863,5.3397,2.29017
0.2903,0.00066,0.00149,0.00063,0.01846,0.04148,0.01751,11.44014,2.41559,5.42938,2.29123
0.29095,0.00015,0.00151,0.00063,0.00426,0.04193,0.01744,11.46591,0.56041,5.51197,2.29228
0.2916,0.00048,0.00152,0.00063,0.01319,0.04231,0.01737,11.49169,1.74185,5.58788,2.29333
0.29226,0.00075,0.00154,0.00062,0.02085,0.04283,0.0173,11.51746,2.76617,5.68139,2.29437
0.29291,-0.00021,0.00156,0.00062,-0.00592,0.04329,0.01723,11.54323,-0.78919,5.76763,2.2954
0.29357,0.00042,0.00157,0.00062,0.01175,0.04371,0.01716,11.56901,1.57329,5.8502,2.29644
0.29422,0.0008,0.00158,0.00062,0.02215,0.04372,0.01709,11.59478,2.97809,5.87798,2.29746
0.29487,0.00038,0.00158,0.00061,0.01064,0.04381,0.01702,11.62055,1.43684,5.91553,2.29848
0.29553,0.00015,0.00157,0.00061,0.00405,0.04365,0.01695,11.64633,0.54927,5.92061,2.2995
0.29618,-0.00038,0.0016,0.00061,-0.01048,0.04432,0.01689,11.6721,-1.42745,6.0378,2.30051
0.29684,0.00065,0.00161,0.00061,0.01806,0.04464,0.01682,11.69787,2.47119,6.10892,2.30151
0.29749,0.00097,0.00161,0.0006,0.02703,0.04472,0.01675,11.72364,3.7145,6.14645,2.30252
0.29814,0.00081,0.00163,0.0006,0.02259,0.04511,0.01669,11.74942,3.11895,6.22672,2.30351
0.2988,0.00025,0.00164,0.0006,0.00684,0.0454,0.01662,11.77519,0.9485,6.29454,2.3045
0.29945,0.00017,0.00163,0.0006,0.00476,0.04521,0.01655,11.80096,0.66247,6.29655,2.30549
0.30011,0.0005,0.00163,0.00059,0.01384,0.04531,0.01649,11.82674,1.93621,6.33746,2.30647
0.30076,0.00077,0.00165,0.00059,0.02145,0.04578,0.01643,11.85251,3.01308,6.43156,2.30744
0.30141,0.00062,0.00165,0.00059,0.01723,0.0458,0.01636,11.87828,2.43169,6.46172,2.30841
0.30207,-0.00039,0.00169,0.00059,-0.01089,0.047,0.0163,11.90406,-1.54374,6.65995,2.30938
0.30272,-0.00013,0.00172,0.00058,-0.00373,0.04778,0.01623,11.92983,-0.5307,6.79973,2.31033
0.30338,0.0006,0.00172,0.00058,0.01662,0.04781,0.01617,11.9556,2.37568,6.83338,2.31129
0.30403,0.00127,0.00176,0.00058,0.03525,0.04892,0.01611,11.98137,5.05957,7.02264,2.31224
0.30468,-0.00057,0.0018,0.00058,-0.01572,0.04999,0.01604,12.00715,-2.26591,7.20681,2.31318
0.30534,0.00078,0.00181,0.00058,0.0217,0.05037,0.01598,12.03292,3.1417,7.29263,2.31411
0.30599,-0.00007,0.00182,0.00057,-0.00206,0.0505,0.01592,12.05869,-0.3,7.34391,2.31505
0.30665,0.00079,0.00185,0.00057,0.02197,0.05128,0.01586,12.08447,3.20882,7.48899,2.31598
0.3073,0.00002,0.00185,0.00057,0.00057,0.05149,0.0158,12.11024,0.08428,7.55069,2.3169
0.30795,0.00048,0.00186,0.00057,0.01322,0.05152,0.01574,12.13601,1.94705,7.58865,2.31782
0.30861,0.00028,0.00188,0.00056,0.00769,0.05216,0.01568,12.16179,1.13687,7.7149,2.31875
0.30926,0.00073,0.00188,0.00056,0.02019,0.05229,0.01562,12.18756,2.99947,7.76752,2.31967
0.30992,0.00049,0.0019,0.00056,0.01364,0.05279,0.01556,12.21333,2.03475,7.87414,2.32059
0.31057,0.00021,0.00192,0.00056,0.00574,0.05341,0.0155,12.23911,0.86046,8.00038,2.32151
0.31122,0.00114,0.00191,0.00056,0.03172,0.05307,0.01544,12.26488,4.77184,7.98245,2.32244
0.31188,0.00016,0.00194,0.00055,0.00441,0.05393,0.01538,12.29065,0.66665,8.1467,2.32336
0.31253,0.00011,0.00196,0.00055,0.00299,0.05429,0.01532,12.31642,0.45302,8.23565,2.32429
0.31319,0.00072,0.002,0.00055,0.01998,0.0554,0.01526,12.3422,3.04394,8.43919,2.32523
0.31384,-0.00007,0.00204,0.00055,-0.00197,0.05652,0.01521,12.36797,-0.30202,8.64623,2.32617
0.31449,0.0001,0.00207,0.00055,0.00265,0.05751,0.01515,12.39374,0.40672,8.8332,2.32712
0.31515,0.00051,0.00213,0.00054,0.01407,0.05899,0.01509,12.41952,2.17029,9.09935,2.32807
0.3158,0.00062,0.00216,0.00054,0.01716,0.05994,0.01504,12.44529,2.65858,9.28423,2.32903
0.31646,-0.00043,0.00221,0.00054,-0.01181,0.06126,0.01498,12.47106,-1.8364,9.52828,2.33001
0.31711,0.00007,0.00222,0.00054,0.00201,0.06164,0.01493,12.49684,0.31438,9.62612,2.33099
0.31776,0.00047,0.00224,0.00054,0.01318,0.06229,0.01487,12.52261,2.06673,9.76818,2.33198
0.31842,0.00121,0.00227,0.00053,0.03371,0.06297,0.01482,12.54838,5.30793,9.91469,2.33299
0.31907,0.00083,0.00231,0.00053,0.02299,0.06415,0.01476,12.57415,3.63529,10.14282,2.334
0.31973,0.00032,0.00234,0.00053,0.00901,0.06504,0.01471,12.59993,1.43061,10.32497,2.33503
0.32038,0.00039,0.00235,0.00053,0.01079,0.06516,0.01465,12.6257,1.71978,10.38676,2.33607
0.32103,0.00031,0.00239,0.00053,0.00868,0.06643,0.0146,12.65147,1.38854,10.63285,2.33712
0.32169,-0.00038,0.00242,0.00052,-0.01063,0.06703,0.01455,12.67725,-1.70847,10.77312,2.33819
0.32234,-0.0003,0.00242,0.00052,-0.00837,0.06704,0.0145,12.70302,-1.35019,10.81824,2.33927
0.323,-0.00027,0.00246,0.00052,-0.00744,0.06831,0.01444,12.72879,-1.20535,11.06773,2.34036
0.32365,0.00104,0.00248,0.00052,0.02893,0.06896,0.01439,12.75457,4.70652,11.2187,2.34147
0.3243,0.00078,0.00255,0.00052,0.02166,0.07079,0.01434,12.78034,3.53804,11.56242,2.34259
0.32496,0.00127,0.00263,0.00051,0.03516,0.07289,0.01429,12.80611,5.76552,11.95352,2.34373
0.32561,0.00132,0.00268,0.00051,0.03655,0.0744,0.01424,12.83188,6.01808,12.25078,2.34488
0.32627,0.00109,0.0028,0.00051,0.03034,0.07761,0.01419,12.85766,5.01546,12.83125,2.34604
0.32692,-0.00031,0.00286,0.00051,-0.00849,0.07928,0.01414,12.88343,-1.40891,13.15923,2.34722
0.32757,0.00079,0.00288,0.00051,0.02185,0.08006,0.01409,12.9092,3.64189,13.34258,2.34842
0.32823,0.00019,0.00293,0.00051,0.00525,0.08121,0.01404,12.93498,0.87826,13.5874,2.34963
0.32888,0.00062,0.00299,0.0005,0.01714,0.08289,0.01399,12.96075,2.87873,13.92385,2.35086
0.32954,0.00017,0.00307,0.0005,0.00465,0.08517,0.01395,12.98652,0.78448,14.36382,2.35211
0.33019,-0.00032,0.00312,0.0005,-0.00876,0.0866,0.0139,13.0123,-1.48379,14.66241,2.35337
0.33084,0.00058,0.00327,0.0005,0.01617,0.09089,0.01385,13.03807,2.74815,15.45069,2.35465
0.3315,0.00001,0.00338,0.0005,0.00038,0.09396,0.0138,13.06384,0.06533,16.0349,2.35595
0.33215,0.00127,0.0034,0.0005,0.03515,0.0944,0.01376,13.08961,6.02232,16.17516,2.35727
0.33281,-0.00031,0.00355,0.00049,-0.00853,0.09855,0.01371,13.11539,-1.46702,16.95215,2.35861
0.33346,0.00157,0.00366,0.00049,0.04347,0.1017,0.01367,13.14116,7.50661,17.56259,2.35996
0.33411,0.0012,0.00387,0.00049,0.03318,0.10729,0.01362,13.16693,5.75313,18.60116,2.36134
0.33477,0.00058,0.00394,0.00049,0.01614,0.10935,0.01358,13.19271,2.80871,19.03133,2.36273
0.33542,0.0001,0.00412,0.00049,0.00265,0.11432,0.01353,13.21848,0.46253,19.97489,2.36415
0.33608,0.00203,0.00435,0.00049,0.05647,0.12073,0.01349,13.24425,9.90468,21.17795,2.36559
0.33673,0.00034,0.00462,0.00048,0.00942,0.12817,0.01344,13.27003,1.65966,22.57006,2.36706
0.33738,0.00056,0.00498,0.00048,0.01544,0.13812,0.0134,13.2958,2.72982,24.41662,2.36854
0.33804,-0.0026,0.00515,0.00048,-0.07222,0.14293,0.01336,13.32157,-12.8173,25.36522,2.37005
0.33869,0.00051,0.00572,0.00048,0.01424,0.15876,0.01331,13.34734,2.53763,28.28321,2.37159
0.33935,-0.00079,0.006,0.00048,-0.02197,0.1666,0.01327,13.37312,-3.92927,29.79436,2.37315
0.34,-0.0005,0.00685,0.00048,-0.01374,0.1901,0.01323,13.39889,-2.46749,34.12906,2.37473