File: 2025/starling_2025/analysis/experimental_comparison/saxs_scattering/experiment/serf/mff_out.csv
#File Plotted Below: serf_clean.dat,,,,,,,,,,
,,,,,,,,,,
    #Fit from 0.01-0.15 with polymer MFF,,,,,,,,,,
#Initial search parameter for I0 = 4.34906,,,,,,,,,,
#Initial search parameter for Rg = 30,,,,,,,,,,
#Initial search parameter for nu = 0.499881,,,,,,,,,,
#BestFit for I0 = 4.42103 +- 0.02642,,,,,,,,,,
#BestFit for I(0)/I0 = 1.00000 +- 0.00598,,,,,,,,,,
#BestFit for Rg = 23.90001 +- 0.11974,,,,,,,,,,
#BestFit for nu = 0.60280 +- 0.00316,,,,,,,,,,
#BestFit reduced chisquared = 7.65704,,,,,,,,,,
#-------------,,,,,,,,,,
#-------------,,,,,,,,,,
,,,,,,,,,,
    #q,I(q),Error,fit,I(q)/I0,Error/I0,fit/I0,qRg,((qRg)^2)I(q)/I0,((qRg)^2)*Error/I0,((qRg)^2)*fit/I0
0.0099,4.0363,1.30229,4.34197,0.91298,0.29457,0.98212,0.23655,0.05109,0.01648,0.05496
0.01152,4.48009,0.20216,4.31228,1.01336,0.04573,0.9754,0.27534,0.07683,0.00347,0.07395
0.01314,4.42721,0.11101,4.27843,1.0014,0.02511,0.96774,0.31413,0.09882,0.00248,0.09549
0.01477,4.38171,0.0841,4.24062,0.99111,0.01902,0.95919,0.35292,0.12344,0.00237,0.11947
0.01639,4.23649,0.06959,4.19907,0.95826,0.01574,0.9498,0.39171,0.14703,0.00242,0.14573
0.01801,4.33731,0.06336,4.15398,0.98106,0.01433,0.9396,0.4305,0.18182,0.00266,0.17413
0.01964,4.2141,0.06105,4.10556,0.95319,0.01381,0.92864,0.46929,0.20992,0.00304,0.20451
0.02126,4.12411,0.0515,4.05402,0.93284,0.01165,0.91699,0.50807,0.2408,0.00301,0.23671
0.02288,4.14191,0.04882,3.99955,0.93687,0.01104,0.90467,0.54686,0.28018,0.0033,0.27055
0.0245,4.08522,0.04379,3.94237,0.92404,0.0099,0.89173,0.58565,0.31694,0.0034,0.30585
0.02613,3.99878,0.04481,3.88269,0.90449,0.01014,0.87823,0.62444,0.35268,0.00395,0.34245
0.02775,3.88379,0.04383,3.8207,0.87848,0.00991,0.86421,0.66323,0.38642,0.00436,0.38014
0.02937,3.7786,0.04136,3.75662,0.85469,0.00936,0.84972,0.70202,0.42122,0.00461,0.41877
0.031,3.7734,0.03603,3.69065,0.85351,0.00815,0.8348,0.74081,0.4684,0.00447,0.45813
0.03262,3.61459,0.03731,3.623,0.81759,0.00844,0.81949,0.7796,0.49691,0.00513,0.49806
0.03424,3.56761,0.03581,3.55388,0.80696,0.0081,0.80386,0.81839,0.54047,0.00543,0.53839
0.03587,3.54081,0.03615,3.48349,0.8009,0.00818,0.78794,0.85717,0.58846,0.00601,0.57893
0.03749,3.42632,0.03245,3.41204,0.77501,0.00734,0.77178,0.89596,0.62214,0.00589,0.61954
0.03911,3.33038,0.03197,3.33974,0.7533,0.00723,0.75542,0.93475,0.65821,0.00632,0.66006
0.04073,3.22576,0.03185,3.26678,0.72964,0.0072,0.73892,0.97354,0.69154,0.00683,0.70033
0.04236,3.18234,0.03123,3.19338,0.71982,0.00706,0.72232,1.01233,0.73768,0.00724,0.74024
0.04398,3.09917,0.03021,3.11973,0.70101,0.00683,0.70566,1.05112,0.77451,0.00755,0.77964
0.0456,3.06994,0.0288,3.04596,0.6944,0.00651,0.68897,1.08991,0.82487,0.00774,0.81843
0.04723,2.94169,0.02678,2.97222,0.66539,0.00606,0.67229,1.1287,0.84767,0.00772,0.85647
0.04885,2.87262,0.0271,2.89865,0.64976,0.00613,0.65565,1.16748,0.88564,0.00835,0.89366
0.05047,2.81703,0.02679,2.82539,0.63719,0.00606,0.63908,1.20627,0.92717,0.00882,0.92992
0.05209,2.73883,0.02673,2.75258,0.6195,0.00605,0.62261,1.24506,0.96034,0.00937,0.96516
0.05372,2.62353,0.02459,2.68037,0.59342,0.00556,0.60628,1.28385,0.97812,0.00917,0.99931
0.05534,2.55061,0.02402,2.60888,0.57693,0.00543,0.59011,1.32264,1.00926,0.00951,1.03232
0.05696,2.47798,0.02415,2.53828,0.5605,0.00546,0.57414,1.36143,1.03888,0.01012,1.06416
0.05859,2.41485,0.02426,2.4687,0.54622,0.00549,0.5584,1.40022,1.07092,0.01076,1.0948
0.06021,2.3595,0.02371,2.40027,0.5337,0.00536,0.54292,1.43901,1.10515,0.01111,1.12425
0.06183,2.24337,0.02264,2.33315,0.50743,0.00512,0.52774,1.47779,1.10817,0.01118,1.15252
0.06346,2.22363,0.02165,2.26746,0.50297,0.0049,0.51288,1.51658,1.15684,0.01127,1.17964
0.06508,2.12718,0.02242,2.2033,0.48115,0.00507,0.49837,1.55537,1.16399,0.01227,1.20564
0.0667,2.09608,0.02146,2.14067,0.47412,0.00485,0.4842,1.59416,1.2049,0.01234,1.23053
0.06832,2.02566,0.02167,2.07957,0.45819,0.0049,0.47038,1.63295,1.22177,0.01307,1.25429
0.06995,1.93352,0.02091,2.02002,0.43735,0.00473,0.45691,1.67174,1.22226,0.01322,1.27694
0.07157,1.93127,0.0204,1.96201,0.43684,0.00461,0.44379,1.71053,1.27815,0.0135,1.29849
0.07319,1.86945,0.01939,1.90555,0.42285,0.00439,0.43102,1.74932,1.29398,0.01342,1.31897
0.07482,1.79606,0.02045,1.85065,0.40625,0.00463,0.4186,1.78811,1.29892,0.01479,1.3384
0.07644,1.74056,0.01915,1.7973,0.3937,0.00433,0.40653,1.8269,1.31399,0.01446,1.35683
0.07806,1.70124,0.0189,1.74552,0.38481,0.00427,0.39482,1.86568,1.33943,0.01488,1.37429
0.07969,1.63082,0.01895,1.6953,0.36888,0.00429,0.38346,1.90447,1.33793,0.01554,1.39082
0.08131,1.58195,0.01881,1.64665,0.35782,0.00426,0.37246,1.94326,1.35124,0.01607,1.4065
0.08293,1.53033,0.01878,1.59957,0.34615,0.00425,0.36181,1.98205,1.35985,0.01669,1.42138
0.08455,1.52193,0.0183,1.55408,0.34425,0.00414,0.35152,2.02084,1.40584,0.01691,1.43553
0.08618,1.44991,0.01725,1.51014,0.32796,0.0039,0.34158,2.05963,1.39122,0.01655,1.44901
0.0878,1.44113,0.01738,1.46771,0.32597,0.00393,0.33198,2.09842,1.43537,0.01732,1.46185
0.08942,1.39184,0.018,1.42677,0.31482,0.00407,0.32272,2.13721,1.438,0.01859,1.47409
0.09105,1.36749,0.01732,1.38726,0.30931,0.00392,0.31379,2.176,1.46459,0.01855,1.48576
0.09267,1.30918,0.01615,1.34914,0.29613,0.00365,0.30516,2.21478,1.45257,0.01792,1.49691
0.09429,1.2966,0.01672,1.31237,0.29328,0.00378,0.29685,2.25357,1.48945,0.0192,1.50756
0.09591,1.22468,0.01643,1.2769,0.27701,0.00372,0.28882,2.29236,1.45568,0.01952,1.51775
0.09754,1.25444,0.0165,1.24271,0.28374,0.00373,0.28109,2.33115,1.54194,0.02028,1.52752
0.09916,1.1934,0.01608,1.20973,0.26994,0.00364,0.27363,2.36994,1.51613,0.02042,1.53688
0.10078,1.19271,0.01571,1.17794,0.26978,0.00355,0.26644,2.40874,1.56528,0.02062,1.54589
0.10241,1.11855,0.01588,1.14729,0.25301,0.00359,0.25951,2.44753,1.51561,0.02152,1.55455
0.10403,1.10976,0.01522,1.11775,0.25102,0.00344,0.25283,2.48629,1.55171,0.02129,1.56289
0.10565,1.0858,0.01524,1.08926,0.2456,0.00345,0.24638,2.52508,1.56595,0.02198,1.57094
0.10727,1.06495,0.01535,1.06178,0.24088,0.00347,0.24017,2.56387,1.58343,0.02282,1.57872
0.1089,1.0383,0.01506,1.03529,0.23485,0.00341,0.23417,2.60266,1.59087,0.02308,1.58626
0.11052,1.01911,0.01502,1.00975,0.23051,0.0034,0.2284,2.64145,1.60836,0.0237,1.59359
0.11214,0.99493,0.01493,0.98512,0.22504,0.00338,0.22283,2.68024,1.61665,0.02427,1.60072
0.11377,0.98499,0.0147,0.96138,0.2228,0.00333,0.21746,2.71903,1.64716,0.02458,1.60768
0.11539,0.94451,0.01499,0.93848,0.21364,0.00339,0.21228,2.75782,1.62486,0.02579,1.61448
0.11701,0.92988,0.01431,0.91639,0.21033,0.00324,0.20728,2.79661,1.645,0.02532,1.62114
0.11864,0.92023,0.01415,0.89508,0.20815,0.0032,0.20246,2.8354,1.6734,0.02573,1.62767
0.12026,0.89766,0.01419,0.87451,0.20304,0.00321,0.19781,2.87419,1.67734,0.02651,1.63407
0.12188,0.89878,0.01385,0.85464,0.2033,0.00313,0.19331,2.91298,1.72507,0.02657,1.64035
0.12351,0.8806,0.01401,0.83545,0.19918,0.00317,0.18897,2.95177,1.73548,0.02761,1.64651
0.12513,0.85615,0.01387,0.8169,0.19365,0.00314,0.18478,2.99056,1.73194,0.02805,1.65253
0.12675,0.86438,0.01382,0.79895,0.19551,0.00313,0.18072,3.02935,1.79423,0.02868,1.65842
0.12837,0.85116,0.01354,0.78158,0.19252,0.00306,0.17679,3.06814,1.81233,0.02882,1.66418
0.13,0.80464,0.01381,0.76477,0.182,0.00312,0.17299,3.10693,1.75687,0.03016,1.66983
0.13162,0.76944,0.01339,0.74851,0.17404,0.00303,0.16931,3.14572,1.72222,0.02996,1.67538
0.13324,0.79488,0.0133,0.73277,0.1798,0.00301,0.16575,3.18451,1.82332,0.0305,1.68085
0.13487,0.76404,0.01308,0.71753,0.17282,0.00296,0.1623,3.2233,1.79554,0.03075,1.68624
0.13649,0.74722,0.01291,0.70278,0.16901,0.00292,0.15896,3.26209,1.79853,0.03107,1.69157
0.13811,0.7304,0.01307,0.6885,0.16521,0.00296,0.15573,3.30088,1.80009,0.0322,1.69683
0.13973,0.72504,0.01299,0.67467,0.164,0.00294,0.1526,3.33967,1.82913,0.03276,1.70205
0.14136,0.73171,0.01231,0.66126,0.16551,0.00279,0.14957,3.37846,1.88908,0.03179,1.70721
0.14298,0.70554,0.01224,0.64827,0.15959,0.00277,0.14663,3.41725,1.8636,0.03232,1.71232
0.1446,0.73372,0.01264,0.63567,0.16596,0.00286,0.14378,3.45604,1.98227,0.03415,1.71737
0.14623,0.69936,0.01247,0.62344,0.15819,0.00282,0.14102,3.49483,1.9321,0.03446,1.72236
0.14785,0.65232,0.01245,0.61157,0.14755,0.00282,0.13833,3.53362,1.84236,0.03518,1.72728
0.14947,0.68166,0.01245,0.60005,0.15419,0.00282,0.13573,3.57238,1.96771,0.03593,1.73213
0.1511,0.66803,0.0119,0.58886,0.1511,0.00269,0.13319,3.61117,1.97047,0.03511,1.73693
0.15272,0.65602,0.01216,0.57798,0.14839,0.00275,0.13074,3.64996,1.97683,0.03664,1.74169
0.15434,0.64273,0.01219,0.56743,0.14538,0.00276,0.12835,3.68875,1.97816,0.03752,1.7464
0.15596,0.63378,0.0123,0.55717,0.14335,0.00278,0.12603,3.72754,1.99185,0.03866,1.75109
0.15759,0.63207,0.01229,0.5472,0.14297,0.00278,0.12377,3.76633,2.02806,0.03944,1.75575
0.15921,0.62798,0.01233,0.53752,0.14204,0.00279,0.12158,3.80512,2.05666,0.04038,1.76039
0.16083,0.58155,0.01248,0.52811,0.13154,0.00282,0.11945,3.84391,1.94362,0.0417,1.76501
0.16246,0.6104,0.01243,0.51896,0.13807,0.00281,0.11738,3.8827,2.08142,0.04238,1.76961
0.16408,0.59872,0.01208,0.51006,0.13543,0.00273,0.11537,3.92149,2.08259,0.04203,1.77419
0.1657,0.55999,0.01235,0.5014,0.12667,0.00279,0.11341,3.96028,1.98659,0.04381,1.77875
0.16733,0.56948,0.01245,0.49297,0.12881,0.00282,0.11151,3.99907,2.06004,0.04503,1.78327
0.16895,0.57446,0.01293,0.48477,0.12994,0.00293,0.10965,4.03786,2.11857,0.0477,1.78777
0.17057,0.56723,0.01296,0.47677,0.1283,0.00293,0.10784,4.07665,2.13226,0.04872,1.79224
0.17219,0.54029,0.01259,0.46899,0.12221,0.00285,0.10608,4.11544,2.06984,0.04822,1.79669
0.17382,0.52938,0.01287,0.46141,0.11974,0.00291,0.10437,4.15423,2.06643,0.05026,1.80113
0.17544,0.5281,0.01307,0.45403,0.11945,0.00296,0.1027,4.19302,2.10014,0.052,1.80556
0.17706,0.53566,0.01318,0.44683,0.12116,0.00298,0.10107,4.23181,2.16981,0.05339,1.80998
0.17869,0.53888,0.01329,0.43983,0.12189,0.00301,0.09948,4.2706,2.22304,0.05481,1.81441
0.18031,0.54768,0.01304,0.433,0.12388,0.00295,0.09794,4.30939,2.30056,0.05476,1.81883
0.18193,0.54739,0.0128,0.42634,0.12382,0.0029,0.09644,4.34818,2.34093,0.05475,1.82326
0.18355,0.53476,0.01311,0.41986,0.12096,0.00297,0.09497,4.38697,2.3279,0.05708,1.8277
0.18518,0.47978,0.01333,0.41353,0.10852,0.00301,0.09354,4.42576,2.12567,0.05905,1.83214
0.1868,0.48109,0.0132,0.40736,0.10882,0.00299,0.09214,4.46455,2.16901,0.0595,1.83659
0.18842,0.45574,0.01316,0.40134,0.10308,0.00298,0.09078,4.50334,2.09055,0.06037,1.84103
0.19005,0.49739,0.01319,0.39547,0.11251,0.00298,0.08945,4.54213,2.32111,0.06154,1.84548
0.19167,0.48146,0.01341,0.38974,0.1089,0.00303,0.08816,4.58091,2.28529,0.06367,1.84992
0.19329,0.45991,0.01312,0.38414,0.10403,0.00297,0.08689,4.61968,2.22009,0.06333,1.85437
0.19492,0.4653,0.0132,0.37868,0.10525,0.00299,0.08565,4.65847,2.28401,0.06481,1.85882
0.19654,0.44493,0.01312,0.37335,0.10064,0.00297,0.08445,4.69726,2.22054,0.0655,1.86329
0.19816,0.46298,0.01318,0.36814,0.10472,0.00298,0.08327,4.73605,2.34894,0.06688,1.86776
0.19978,0.46252,0.01355,0.36305,0.10462,0.00306,0.08212,4.77484,2.38517,0.06988,1.87225
0.20141,0.43774,0.0137,0.35808,0.09901,0.0031,0.081,4.81363,2.29426,0.07181,1.87674
0.20303,0.44598,0.01353,0.35323,0.10088,0.00306,0.0799,4.85242,2.37523,0.07208,1.88125
0.20465,0.42291,0.01328,0.34848,0.09566,0.003,0.07882,4.89121,2.28852,0.07186,1.88577
0.20628,0.44705,0.01345,0.34384,0.10112,0.00304,0.07777,4.93,2.45768,0.07392,1.89028
0.2079,0.41793,0.01355,0.3393,0.09453,0.00306,0.07675,4.96879,2.33392,0.07564,1.89481
0.20952,0.40546,0.01372,0.33486,0.09171,0.0031,0.07574,5.00758,2.29977,0.07783,1.89932
0.21114,0.3904,0.01378,0.33052,0.0883,0.00312,0.07476,5.04637,2.24875,0.07939,1.90383
0.21277,0.42556,0.0136,0.32626,0.09626,0.00308,0.0738,5.08516,2.48914,0.07956,1.90834
0.21439,0.42027,0.01373,0.3221,0.09506,0.00311,0.07286,5.12395,2.49584,0.08155,1.91284
0.21601,0.42007,0.01339,0.31803,0.09502,0.00303,0.07193,5.16274,2.53255,0.08071,1.91733
0.21764,0.43017,0.01365,0.31403,0.0973,0.00309,0.07103,5.20153,2.63259,0.08354,1.92183
0.21926,0.39711,0.01363,0.31013,0.08982,0.00308,0.07015,5.24032,2.4666,0.08464,1.92632
0.22088,0.38439,0.01345,0.3063,0.08694,0.00304,0.06928,5.27911,2.42306,0.0848,1.93081
0.22251,0.41749,0.01323,0.30255,0.09443,0.00299,0.06843,5.3179,2.67053,0.08464,1.93529
0.22413,0.4043,0.01322,0.29887,0.09145,0.00299,0.0676,5.35669,2.62406,0.08582,1.93977
0.22575,0.38592,0.01344,0.29527,0.08729,0.00304,0.06679,5.39547,2.54115,0.08853,1.94424
0.22737,0.38449,0.0131,0.29173,0.08697,0.00296,0.06599,5.43426,2.56826,0.08748,1.94869
0.229,0.38289,0.01345,0.28827,0.08661,0.00304,0.0652,5.47305,2.59425,0.09112,1.95314
0.23062,0.37576,0.01371,0.28487,0.08499,0.0031,0.06443,5.51184,2.58217,0.09418,1.95756
0.23224,0.38368,0.0138,0.28153,0.08679,0.00312,0.06368,5.55063,2.67382,0.09616,1.96195
0.23387,0.37855,0.01343,0.27826,0.08562,0.00304,0.06294,5.58942,2.67506,0.09493,1.96633
0.23549,0.37739,0.01372,0.27504,0.08536,0.0031,0.06221,5.62821,2.704,0.09827,1.97068
0.23711,0.37485,0.01362,0.27189,0.08479,0.00308,0.0615,5.667,2.72294,0.09895,1.97502
0.23874,0.36518,0.01321,0.26879,0.0826,0.00299,0.0608,5.70577,2.68912,0.09726,1.97933
0.24036,0.3645,0.01385,0.26575,0.08245,0.00313,0.06011,5.74456,2.72076,0.10341,1.98361
0.24198,0.35883,0.01353,0.26276,0.08117,0.00306,0.05943,5.78335,2.71474,0.10234,1.98788
0.2436,0.34768,0.0138,0.25982,0.07864,0.00312,0.05877,5.82214,2.66578,0.10583,1.99212
0.24523,0.31963,0.01371,0.25694,0.0723,0.0031,0.05812,5.86093,2.48345,0.1065,1.99633
0.24685,0.33811,0.01369,0.2541,0.07648,0.0031,0.05748,5.89972,2.66197,0.10782,2.00052
0.24847,0.3632,0.01373,0.25131,0.08215,0.00311,0.05684,5.93851,2.89718,0.10955,2.00468
0.2501,0.3483,0.01325,0.24857,0.07878,0.003,0.05622,5.9773,2.81472,0.10704,2.0088
0.25172,0.33528,0.01342,0.24587,0.07584,0.00304,0.05561,6.01609,2.74481,0.10989,2.01288
0.25334,0.33876,0.01358,0.24322,0.07662,0.00307,0.05501,6.05488,2.80916,0.11263,2.01692
0.25496,0.34103,0.01357,0.24061,0.07714,0.00307,0.05442,6.09367,2.86439,0.11395,2.02093
0.25659,0.32672,0.01347,0.23804,0.0739,0.00305,0.05384,6.13246,2.77925,0.11457,2.0249
0.25821,0.31697,0.01405,0.23552,0.0717,0.00318,0.05327,6.17125,2.73048,0.12099,2.02884
0.25983,0.32703,0.01333,0.23303,0.07397,0.00301,0.05271,6.21003,2.85263,0.11624,2.03276
0.26146,0.30578,0.0137,0.23059,0.06916,0.0031,0.05216,6.24882,2.70072,0.12103,2.03664
0.26308,0.32418,0.01408,0.22819,0.07333,0.00318,0.05161,6.28761,2.89894,0.12589,2.0405
0.2647,0.29701,0.01326,0.22582,0.06718,0.003,0.05108,6.3264,2.68878,0.12007,2.04433
0.26633,0.31766,0.01416,0.22349,0.07185,0.0032,0.05055,6.36519,2.91113,0.12981,2.04814
0.26795,0.29481,0.01356,0.2212,0.06668,0.00307,0.05003,6.40398,2.73476,0.12575,2.05193
0.26957,0.29923,0.01314,0.21895,0.06768,0.00297,0.04952,6.44277,2.80947,0.12339,2.05569
0.2712,0.301,0.01393,0.21673,0.06808,0.00315,0.04902,6.48156,2.86025,0.13234,2.05944
0.27282,0.31541,0.01358,0.21454,0.07134,0.00307,0.04853,6.52035,3.03319,0.13057,2.06317
0.27444,0.29894,0.0139,0.21239,0.06762,0.00314,0.04804,6.55914,2.90907,0.1353,2.06688
0.27606,0.3193,0.01363,0.21028,0.07222,0.00308,0.04756,6.59793,3.14404,0.13423,2.07057
0.27769,0.32689,0.01389,0.2082,0.07394,0.00314,0.04709,6.63672,3.25681,0.13835,2.07425
0.27931,0.30047,0.01356,0.20615,0.06796,0.00307,0.04663,6.67551,3.02864,0.13668,2.07791
0.28093,0.30184,0.01402,0.20413,0.06827,0.00317,0.04617,6.7143,3.0779,0.14299,2.08156
0.28256,0.27202,0.01399,0.20215,0.06153,0.00317,0.04572,6.75307,2.80593,0.14435,2.08519
0.28418,0.28998,0.01367,0.20019,0.06559,0.00309,0.04528,6.79186,3.02566,0.14264,2.08882
0.2858,0.29862,0.01394,0.19827,0.06755,0.00315,0.04485,6.83065,3.15152,0.1471,2.09243
0.28742,0.30179,0.01405,0.19637,0.06826,0.00318,0.04442,6.86944,3.22122,0.14992,2.09603
0.28905,0.28726,0.01373,0.1945,0.06498,0.0031,0.044,6.90823,3.1009,0.14816,2.09961
0.29067,0.29071,0.0136,0.19267,0.06576,0.00308,0.04358,6.94702,3.17343,0.14842,2.10319
0.29229,0.29095,0.01365,0.19085,0.06581,0.00309,0.04317,6.98581,3.21159,0.15071,2.10675
0.29392,0.24612,0.01371,0.18907,0.05567,0.0031,0.04277,7.0246,2.74701,0.153,2.11029
0.29554,0.26786,0.0134,0.18731,0.06059,0.00303,0.04237,7.06338,3.02278,0.15124,2.11382
0.29716,0.25003,0.01386,0.18558,0.05655,0.00313,0.04198,7.10217,2.85262,0.15809,2.11734
0.29879,0.28054,0.01449,0.18387,0.06346,0.00328,0.04159,7.14096,3.23585,0.16715,2.12085
0.30041,0.28288,0.01336,0.18219,0.06398,0.00302,0.04121,7.17975,3.29833,0.15578,2.12435
0.30203,0.25061,0.01294,0.18054,0.05669,0.00293,0.04084,7.21854,2.95371,0.15249,2.12784
0.30365,0.27218,0.01346,0.1789,0.06156,0.00305,0.04047,7.25733,3.24253,0.1604,2.13132
0.30528,0.26077,0.01374,0.17729,0.05898,0.00311,0.0401,7.29612,3.13996,0.16548,2.13478
0.3069,0.27478,0.01319,0.17571,0.06215,0.00298,0.03974,7.33491,3.34386,0.16053,2.13824
0.30852,0.2647,0.01381,0.17414,0.05987,0.00312,0.03939,7.3737,3.25537,0.16982,2.14169
0.31015,0.2768,0.0135,0.1726,0.06261,0.00305,0.03904,7.41249,3.44004,0.16777,2.14512
0.31177,0.25515,0.01354,0.17108,0.05771,0.00306,0.0387,7.45128,3.20426,0.16998,2.14855
0.31339,0.25103,0.01376,0.16958,0.05678,0.00311,0.03836,7.49007,3.18546,0.17464,2.15197
0.31501,0.28023,0.01362,0.16811,0.06339,0.00308,0.03802,7.52886,3.59294,0.17466,2.15537
0.31664,0.26294,0.0137,0.16665,0.05948,0.0031,0.0377,7.56765,3.40611,0.17747,2.15877
0.31826,0.25465,0.01422,0.16521,0.0576,0.00322,0.03737,7.60644,3.33255,0.18614,2.16215
0.31988,0.25723,0.01319,0.1638,0.05818,0.00298,0.03705,7.64523,3.40084,0.17444,2.16553
0.32151,0.21986,0.0135,0.1624,0.04973,0.00305,0.03673,7.68402,2.93628,0.18032,2.16889
0.32313,0.23566,0.01345,0.16102,0.0533,0.00304,0.03642,7.72281,3.17913,0.18151,2.17225
0.32475,0.22472,0.01361,0.15966,0.05083,0.00308,0.03611,7.7616,3.06214,0.18539,2.17559
0.32638,0.25748,0.01359,0.15832,0.05824,0.00307,0.03581,7.80039,3.54371,0.187,2.17893
0.328,0.24047,0.01362,0.157,0.05439,0.00308,0.03551,7.83916,3.34259,0.18939,2.18225
0.32962,0.22478,0.01362,0.15569,0.05084,0.00308,0.03522,7.87794,3.15548,0.1912,2.18557
0.33124,0.19923,0.01378,0.1544,0.04506,0.00312,0.03492,7.91673,2.8244,0.19535,2.18888
0.33287,0.20394,0.01362,0.15313,0.04613,0.00308,0.03464,7.95552,2.91956,0.19495,2.19217
0.33449,0.2354,0.01324,0.15187,0.05325,0.003,0.03435,7.99431,3.40287,0.19144,2.19546
0.33611,0.2308,0.01384,0.15064,0.05221,0.00313,0.03407,8.0331,3.36889,0.20199,2.19873
0.33774,0.24252,0.01381,0.14941,0.05485,0.00312,0.0338,8.07189,3.5741,0.20349,2.20199
0.33936,0.23324,0.01372,0.14821,0.05276,0.0031,0.03352,8.11068,3.47054,0.20411,2.20524
0.34098,0.21555,0.01375,0.14701,0.04876,0.00311,0.03325,8.14947,3.23807,0.20662,2.20848
0.3426,0.20755,0.01359,0.14584,0.04695,0.00307,0.03299,8.18826,3.14761,0.20608,2.21171
0.34423,0.20842,0.01359,0.14468,0.04714,0.00307,0.03272,8.22705,3.19081,0.20805,2.21493
0.34585,0.21742,0.01358,0.14353,0.04918,0.00307,0.03246,8.26584,3.36002,0.20989,2.21814
0.34747,0.20695,0.0138,0.1424,0.04681,0.00312,0.03221,8.30463,3.22843,0.21524,2.22134
0.3491,0.23906,0.01367,0.14128,0.05407,0.00309,0.03196,8.34342,3.76418,0.21525,2.22453
0.35072,0.20839,0.01405,0.14017,0.04714,0.00318,0.03171,8.38221,3.31182,0.22332,2.2277
0.35234,0.21069,0.01398,0.13908,0.04766,0.00316,0.03146,8.421,3.37939,0.22419,2.23087
0.35397,0.20675,0.01418,0.138,0.04676,0.00321,0.03122,8.45979,3.34681,0.22962,2.23402
0.35559,0.21253,0.01381,0.13694,0.04807,0.00312,0.03097,8.49858,3.47205,0.22565,2.23717
0.35721,0.21599,0.01382,0.13589,0.04886,0.00313,0.03074,8.53737,3.56094,0.22779,2.2403
0.35884,0.21097,0.01389,0.13485,0.04772,0.00314,0.0305,8.57616,3.50972,0.23103,2.24342
0.36046,0.1993,0.01388,0.13382,0.04508,0.00314,0.03027,8.61495,3.34567,0.23293,2.24653
0.36208,0.20508,0.01348,0.13281,0.04639,0.00305,0.03004,8.65374,3.47387,0.22829,2.24962
0.3637,0.19581,0.0136,0.13181,0.04429,0.00308,0.02981,8.69253,3.34653,0.23249,2.25271
0.36533,0.20475,0.01354,0.13082,0.04631,0.00306,0.02959,8.73132,3.53064,0.23353,2.25578
0.36695,0.20097,0.01349,0.12984,0.04546,0.00305,0.02937,8.77011,3.49644,0.23474,2.25883
0.36857,0.20967,0.0138,0.12887,0.04743,0.00312,0.02915,8.8089,3.68014,0.24215,2.26187
0.3702,0.20661,0.01382,0.12791,0.04673,0.00313,0.02893,8.84769,3.65832,0.24478,2.2649
0.37182,0.22913,0.01388,0.12697,0.05183,0.00314,0.02872,8.88645,4.09268,0.248,2.26791
0.37344,0.20366,0.01334,0.12603,0.04607,0.00302,0.02851,8.92524,3.66961,0.24044,2.2709
0.37506,0.17968,0.01346,0.12511,0.04064,0.00305,0.0283,8.96403,3.26583,0.24472,2.27388
0.37669,0.22368,0.01399,0.12419,0.05059,0.00316,0.02809,9.00282,4.10064,0.25644,2.27684
0.37831,0.17408,0.01356,0.12329,0.03937,0.00307,0.02789,9.04161,3.2189,0.25074,2.27978
0.37993,0.21063,0.0133,0.12239,0.04764,0.00301,0.02768,9.0804,3.92836,0.24804,2.2827
0.38156,0.16977,0.01313,0.12151,0.0384,0.00297,0.02748,9.11919,3.19336,0.24703,2.28561
0.38318,0.18917,0.01331,0.12064,0.04279,0.00301,0.02729,9.15798,3.58869,0.25247,2.28849
0.3848,0.18858,0.0133,0.11977,0.04266,0.00301,0.02709,9.19677,3.60779,0.25439,2.29136
0.38643,0.20244,0.01337,0.11891,0.04579,0.00302,0.0269,9.23556,3.90561,0.2579,2.29421
0.38805,0.19164,0.01353,0.11807,0.04335,0.00306,0.02671,9.27435,3.72848,0.26316,2.29705
0.38967,0.20812,0.01349,0.11723,0.04708,0.00305,0.02652,9.31314,4.08311,0.26472,2.29986
0.39129,0.17436,0.0137,0.1164,0.03944,0.0031,0.02633,9.35193,3.44934,0.27098,2.30267
0.39292,0.19722,0.01376,0.11558,0.04461,0.00311,0.02614,9.39072,3.93384,0.27438,2.30545
0.39454,0.18397,0.01279,0.11477,0.04161,0.00289,0.02596,9.42951,3.7,0.25719,2.30822
0.39616,0.18249,0.01346,0.11397,0.04128,0.00304,0.02578,9.4683,3.70039,0.27296,2.31097
0.39779,0.17876,0.01346,0.11317,0.04043,0.00304,0.0256,9.50709,3.65456,0.2751,2.31371
0.39941,0.18539,0.01357,0.11239,0.04193,0.00307,0.02542,9.54588,3.8212,0.27962,2.31643
0.40103,0.15846,0.01371,0.11161,0.03584,0.0031,0.02524,9.58467,3.2926,0.28479,2.31913
0.40265,0.19654,0.01404,0.11084,0.04445,0.00318,0.02507,9.62346,4.117,0.2941,2.32182
0.40428,0.18725,0.01334,0.11008,0.04235,0.00302,0.0249,9.66225,3.95421,0.28163,2.32449
0.4059,0.18159,0.01365,0.10932,0.04108,0.00309,0.02473,9.70104,3.86558,0.29051,2.32715
0.40752,0.19689,0.01358,0.10858,0.04453,0.00307,0.02456,9.73983,4.22475,0.29141,2.32979
0.40915,0.15554,0.01358,0.10784,0.03518,0.00307,0.02439,9.77862,3.36409,0.29383,2.33241
0.41077,0.17894,0.01388,0.10711,0.04047,0.00314,0.02423,9.81741,3.90091,0.30256,2.33502
0.41239,0.17419,0.01336,0.10638,0.0394,0.00302,0.02406,9.8562,3.8276,0.29361,2.33761
0.41402,0.16771,0.01414,0.10567,0.03793,0.0032,0.0239,9.89499,3.71423,0.31311,2.34019
0.41564,0.16062,0.01374,0.10496,0.03633,0.00311,0.02374,9.93378,3.58524,0.3067,2.34275
0.41726,0.17712,0.01364,0.10426,0.04006,0.00309,0.02358,9.97254,3.98436,0.30693,2.34529
0.41888,0.18894,0.01421,0.10356,0.04274,0.00321,0.02343,10.01133,4.28331,0.32221,2.34782
0.42051,0.17278,0.01376,0.10287,0.03908,0.00311,0.02327,10.05012,3.94751,0.31435,2.35033
0.42213,0.17331,0.01386,0.10219,0.0392,0.00313,0.02312,10.08891,3.99026,0.31909,2.35283
0.42375,0.18069,0.01387,0.10152,0.04087,0.00314,0.02296,10.1277,4.19199,0.32182,2.35531
0.42538,0.15886,0.01418,0.10085,0.03593,0.00321,0.02281,10.16649,3.71397,0.33145,2.35777
0.427,0.19005,0.01399,0.10019,0.04299,0.00317,0.02266,10.20528,4.47715,0.32968,2.36022
0.42862,0.14787,0.01382,0.09954,0.03345,0.00313,0.02251,10.24407,3.50986,0.328,2.36266
0.43024,0.14678,0.01352,0.09889,0.0332,0.00306,0.02237,10.28286,3.51062,0.32347,2.36509
0.43187,0.17565,0.01407,0.09825,0.03973,0.00318,0.02222,10.32165,4.2328,0.33902,2.36751
0.43349,0.16774,0.01391,0.09761,0.03794,0.00315,0.02208,10.36044,4.07263,0.33778,2.36991
0.43511,0.17622,0.01346,0.09698,0.03986,0.00304,0.02194,10.39923,4.31054,0.32924,2.37231
0.43674,0.16397,0.01377,0.09636,0.03709,0.00311,0.0218,10.43802,4.04079,0.3393,2.3747
0.43836,0.14184,0.01384,0.09574,0.03208,0.00313,0.02166,10.47681,3.5216,0.3437,2.37708
0.43998,0.17279,0.01376,0.09513,0.03908,0.00311,0.02152,10.5156,4.32179,0.34414,2.37945
0.44161,0.15939,0.01347,0.09453,0.03605,0.00305,0.02138,10.55439,4.01607,0.33943,2.38181
0.44323,0.13913,0.01359,0.09393,0.03147,0.00307,0.02125,10.59318,3.53135,0.34491,2.38417
0.44485,0.14907,0.01372,0.09334,0.03372,0.0031,0.02111,10.63197,3.81149,0.35082,2.38652
0.44648,0.16647,0.01383,0.09275,0.03765,0.00313,0.02098,10.67076,4.28757,0.35615,2.38887
0.4481,0.15623,0.01384,0.09217,0.03534,0.00313,0.02085,10.70955,4.05306,0.35913,2.3912
0.44972,0.14684,0.01391,0.0916,0.03321,0.00315,0.02072,10.74834,3.83716,0.36361,2.39353
0.45134,0.12981,0.01373,0.09103,0.02936,0.00311,0.02059,10.78713,3.41654,0.36134,2.39585
0.45297,0.14182,0.01351,0.09046,0.03208,0.00306,0.02046,10.82592,3.75962,0.3581,2.39816
0.45459,0.13042,0.01391,0.0899,0.0295,0.00315,0.02034,10.86471,3.48233,0.37147,2.40046
0.45621,0.13629,0.01379,0.08935,0.03083,0.00312,0.02021,10.90349,3.66509,0.37082,2.40276
0.45784,0.1481,0.01416,0.0888,0.0335,0.0032,0.02009,10.94228,4.01104,0.38346,2.40504
0.45946,0.15562,0.01276,0.08826,0.0352,0.00289,0.01996,10.98107,4.24452,0.34802,2.40731
0.46108,0.14234,0.01309,0.08772,0.0322,0.00296,0.01984,11.01986,3.90987,0.35949,2.40957
0.4627,0.1203,0.01311,0.08719,0.02721,0.00297,0.01972,11.05863,3.32773,0.36273,2.41181
0.46433,0.15382,0.013,0.08666,0.03479,0.00294,0.0196,11.09742,4.28491,0.36227,2.41405
0.46595,0.14892,0.01363,0.08614,0.03368,0.00308,0.01948,11.13621,4.17736,0.38224,2.41627
0.46757,0.14717,0.0134,0.08562,0.03329,0.00303,0.01937,11.175,4.15713,0.37848,2.41849
0.4692,0.15607,0.01378,0.08511,0.0353,0.00312,0.01925,11.21379,4.43919,0.3919,2.42068
0.47082,0.12932,0.01304,0.0846,0.02925,0.00295,0.01913,11.25258,3.70376,0.37343,2.42287
0.47244,0.14366,0.01338,0.08409,0.03249,0.00303,0.01902,11.29137,4.14288,0.38594,2.42504
0.47407,0.1507,0.01329,0.08359,0.03409,0.00301,0.01891,11.33016,4.37584,0.38581,2.4272
0.47569,0.14017,0.01353,0.08309,0.03171,0.00306,0.0188,11.36895,4.09812,0.39557,2.42935
0.47731,0.15421,0.01381,0.0826,0.03488,0.00312,0.01868,11.40774,4.53929,0.4066,2.43148
0.47893,0.1485,0.01382,0.08212,0.03359,0.00313,0.01857,11.44653,4.40105,0.40958,2.43359
0.48056,0.15548,0.0135,0.08163,0.03517,0.00305,0.01846,11.48532,4.63908,0.4029,2.43569
0.48218,0.12671,0.01403,0.08115,0.02866,0.00317,0.01836,11.52411,3.80614,0.42143,2.43777
0.4838,0.15469,0.01369,0.08068,0.03499,0.0031,0.01825,11.5629,4.67813,0.41393,2.43984
0.48543,0.14363,0.01345,0.08021,0.03249,0.00304,0.01814,11.60169,4.37294,0.40944,2.44189
0.48705,0.13031,0.01373,0.07974,0.02948,0.0031,0.01804,11.64048,3.99395,0.42067,2.44393
0.48867,0.12989,0.01397,0.07928,0.02938,0.00316,0.01793,11.67927,4.00759,0.4311,2.44595
0.49029,0.12588,0.01395,0.07882,0.02847,0.00315,0.01783,11.71805,3.90977,0.43317,2.44795
0.49192,0.15773,0.01333,0.07836,0.03568,0.00301,0.01772,11.75684,4.93133,0.41674,2.44994
0.49354,0.14356,0.01366,0.07791,0.03247,0.00309,0.01762,11.79563,4.51819,0.42992,2.45191
0.49516,0.13619,0.01377,0.07746,0.0308,0.00311,0.01752,11.83442,4.31433,0.4362,2.45387
0.49679,0.14518,0.01399,0.07702,0.03284,0.00316,0.01742,11.87321,4.62929,0.44595,2.45581
0.49841,0.13911,0.01376,0.07658,0.03147,0.00311,0.01732,11.912,4.46499,0.44171,2.45774
0.50003,0.11367,0.0139,0.07614,0.02571,0.00314,0.01722,11.95079,3.67205,0.44894,2.45965
0.50166,0.12642,0.01347,0.0757,0.0286,0.00305,0.01712,11.98958,4.11059,0.43803,2.46155
0.50328,0.13718,0.01381,0.07527,0.03103,0.00312,0.01703,12.02837,4.48936,0.45208,2.46343
0.5049,0.12069,0.01374,0.07485,0.0273,0.00311,0.01693,12.06716,3.97529,0.45247,2.4653
0.50652,0.13258,0.01381,0.07443,0.02999,0.00312,0.01683,12.10593,4.39489,0.45789,2.46716
0.50815,0.1381,0.01391,0.07401,0.03124,0.00315,0.01674,12.14472,4.60739,0.46422,2.46901
0.50977,0.13662,0.01401,0.07359,0.0309,0.00317,0.01665,12.18351,4.58697,0.47028,2.47086
0.51139,0.13509,0.01375,0.07318,0.03056,0.00311,0.01655,12.2223,4.56446,0.46446,2.47272
0.51302,0.13917,0.01345,0.07277,0.03148,0.00304,0.01646,12.26109,4.73235,0.4573,2.47458
0.51464,0.12009,0.01439,0.07237,0.02716,0.00326,0.01637,12.29988,4.10946,0.49245,2.47645
0.51626,0.10861,0.01374,0.07197,0.02457,0.00311,0.01628,12.33867,3.73999,0.47314,2.47834
0.51789,0.14192,0.01374,0.07157,0.0321,0.00311,0.01619,12.37746,4.91784,0.47619,2.48025
0.51951,0.13382,0.01399,0.07118,0.03027,0.00316,0.0161,12.41625,4.6665,0.48782,2.48217
0.52113,0.1276,0.0136,0.0708,0.02886,0.00308,0.01601,12.45504,4.47745,0.47737,2.48413
0.52275,0.14368,0.01391,0.07041,0.0325,0.00315,0.01593,12.49383,5.07292,0.49124,2.48612
0.52438,0.12134,0.01373,0.07004,0.02745,0.00311,0.01584,12.53261,4.311,0.48784,2.48814
0.526,0.15517,0.01373,0.06966,0.0351,0.0031,0.01576,12.5714,5.54703,0.49068,2.49021
0.52762,0.10038,0.01396,0.06929,0.0227,0.00316,0.01567,12.61019,3.61047,0.50215,2.49232
0.52925,0.12341,0.01376,0.06893,0.02791,0.00311,0.01559,12.64898,4.46609,0.49808,2.49447
0.53087,0.11601,0.01381,0.06857,0.02624,0.00312,0.01551,12.68777,4.22433,0.50272,2.49666
0.53249,0.14051,0.0142,0.06821,0.03178,0.00321,0.01543,12.72656,5.14769,0.52032,2.49891
0.53412,0.15983,0.01352,0.06786,0.03615,0.00306,0.01535,12.76535,5.89131,0.49824,2.5012
0.53574,0.12591,0.01407,0.06751,0.02848,0.00318,0.01527,12.80414,4.66908,0.52174,2.50355
0.53736,0.13202,0.01342,0.06717,0.02986,0.00304,0.01519,12.84293,4.92529,0.50063,2.50596
0.53898,0.10558,0.013,0.06683,0.02388,0.00294,0.01512,12.88172,3.96295,0.48785,2.50842
0.54061,0.13814,0.01378,0.0665,0.03125,0.00312,0.01504,12.92051,5.21637,0.52046,2.51095
0.54223,0.11242,0.01374,0.06617,0.02543,0.00311,0.01497,12.9593,4.27055,0.52194,2.51354
0.54385,0.12033,0.01387,0.06584,0.02722,0.00314,0.01489,12.99809,4.59839,0.52992,2.51619
0.54548,0.11701,0.01334,0.06552,0.02647,0.00302,0.01482,13.03688,4.49836,0.51296,2.51891
0.5471,0.10088,0.01385,0.06521,0.02282,0.00313,0.01475,13.07567,3.90123,0.53571,2.52171
0.54872,0.10895,0.01362,0.06489,0.02464,0.00308,0.01468,13.11446,4.23855,0.52972,2.52458
0.55034,0.14152,0.01365,0.06459,0.03201,0.00309,0.01461,13.15325,5.53818,0.53406,2.52752
0.55197,0.13361,0.01387,0.06429,0.03022,0.00314,0.01454,13.19202,5.25954,0.54592,2.53055
0.55359,0.11306,0.01381,0.06399,0.02557,0.00312,0.01447,13.23081,4.47662,0.54665,2.53367
0.55521,0.13626,0.0137,0.0637,0.03082,0.0031,0.01441,13.2696,5.42685,0.54584,2.53687
0.55684,0.12182,0.01368,0.06341,0.02755,0.00309,0.01434,13.30839,4.8803,0.54787,2.54016
0.55846,0.10231,0.01383,0.06312,0.02314,0.00313,0.01428,13.34718,4.12274,0.5571,2.54355
0.56008,0.13353,0.01391,0.06284,0.0302,0.00315,0.01421,13.38596,5.41184,0.56388,2.54704
0.56171,0.11743,0.01384,0.06257,0.02656,0.00313,0.01415,13.42475,4.78722,0.56429,2.55063
0.56333,0.10564,0.01432,0.0623,0.02389,0.00324,0.01409,13.46354,4.33115,0.58716,2.55433
0.56495,0.12407,0.01439,0.06203,0.02806,0.00325,0.01403,13.50233,5.11653,0.59324,2.55814
0.56657,0.13335,0.01391,0.06177,0.03016,0.00315,0.01397,13.54112,5.53073,0.57686,2.56206
0.5682,0.11485,0.0145,0.06152,0.02598,0.00328,0.01391,13.57991,4.79056,0.60465,2.56609
0.56982,0.13324,0.01436,0.06127,0.03014,0.00325,0.01386,13.6187,5.58954,0.60245,2.57026
0.57144,0.13298,0.01452,0.06102,0.03008,0.00328,0.0138,13.65749,5.61067,0.61256,2.57455
0.57307,0.1174,0.01442,0.06078,0.02655,0.00326,0.01375,13.69628,4.98122,0.61177,2.57898
0.57469,0.12004,0.01421,0.06055,0.02715,0.00321,0.01369,13.73507,5.1223,0.60615,2.58355
0.57631,0.10846,0.01452,0.06031,0.02453,0.00329,0.01364,13.77386,4.65451,0.62331,2.58827
0.57793,0.10997,0.01378,0.06009,0.02487,0.00312,0.01359,13.81265,4.74562,0.59465,2.59314
0.57956,0.11017,0.01442,0.05987,0.02492,0.00326,0.01354,13.85144,4.7813,0.62564,2.59818
0.58118,0.13565,0.01447,0.05965,0.03068,0.00327,0.01349,13.89023,5.91974,0.63129,2.60337
0.5828,0.09368,0.01439,0.05944,0.02119,0.00325,0.01345,13.92902,4.11134,0.63135,2.60874
0.58443,0.09693,0.01464,0.05924,0.02192,0.00331,0.0134,13.96781,4.27734,0.64619,2.61429
0.58605,0.11301,0.01456,0.05904,0.02556,0.00329,0.01335,14.0066,5.01477,0.64592,2.62003
0.58767,0.08139,0.01467,0.05885,0.01841,0.00332,0.01331,14.04539,3.63168,0.65457,2.62595
0.5893,0.11112,0.01447,0.05866,0.02513,0.00327,0.01327,14.08418,4.98559,0.64918,2.63208
0.59092,0.1046,0.01413,0.05848,0.02366,0.0032,0.01323,14.12297,4.71898,0.63745,2.63841
0.59254,0.09324,0.01465,0.0583,0.02109,0.00331,0.01319,14.16176,4.22967,0.66443,2.64495
0.59417,0.11779,0.01407,0.05814,0.02664,0.00318,0.01315,14.20055,5.37264,0.64173,2.6517
0.59579,0.12969,0.01444,0.05797,0.02933,0.00327,0.01311,14.23931,5.94769,0.66237,2.65868
0.59741,0.12527,0.0141,0.05781,0.02834,0.00319,0.01308,14.2781,5.77669,0.65027,2.66589
0.59903,0.11635,0.0149,0.05766,0.02632,0.00337,0.01304,14.31689,5.39456,0.69066,2.67334
0.60066,0.12676,0.01409,0.05751,0.02867,0.00319,0.01301,14.35568,5.90867,0.65699,2.68104
0.60228,0.10831,0.0146,0.05737,0.0245,0.0033,0.01298,14.39447,5.07641,0.68413,2.68898
0.6039,0.08028,0.01464,0.05724,0.01816,0.00331,0.01295,14.43326,3.783,0.68973,2.69719
0.60552,0.11712,0.01459,0.05711,0.02649,0.0033,0.01292,14.47205,5.5485,0.691,2.70566
0.60715,0.09102,0.01457,0.05699,0.02059,0.0033,0.01289,14.51084,4.33533,0.69399,2.7144
0.60877,0.11962,0.01494,0.05688,0.02706,0.00338,0.01287,14.54963,5.72795,0.7154,2.72343
0.61039,0.0939,0.01453,0.05677,0.02124,0.00329,0.01284,14.58842,4.52034,0.69943,2.73274
0.61202,0.13526,0.01453,0.05667,0.0306,0.00329,0.01282,14.62721,6.54609,0.70341,2.74234
0.61364,0.1241,0.01434,0.05657,0.02807,0.00324,0.0128,14.666,6.03771,0.69752,2.75225
0.61445,0.1037,0.01484,0.05652,0.02346,0.00336,0.01279,14.68541,5.05862,0.72414,2.75732