File: 2025/starling_2025/figures/experimental_comparison/saxs_scattering/experiment/pol2_ctd/mff_out.csv
#File Plotted Below: pol2_ctd_clean.dat,,,,,,,,,,
,,,,,,,,,,
    #Fit from 0.01-0.15 with polymer MFF,,,,,,,,,,
#Initial search parameter for I0 = 0.0151849,,,,,,,,,,
#Initial search parameter for Rg = 30,,,,,,,,,,
#Initial search parameter for nu = 0.499881,,,,,,,,,,
#BestFit for I0 = 0.01543 +- 0.00005,,,,,,,,,,
#BestFit for I(0)/I0 = 1.00000 +- 0.00296,,,,,,,,,,
#BestFit for Rg = 26.04113 +- 0.08156,,,,,,,,,,
#BestFit for nu = 0.60280 +- 0.00174,,,,,,,,,,
#BestFit reduced chisquared = 2.14196,,,,,,,,,,
#-------------,,,,,,,,,,
#-------------,,,,,,,,,,
,,,,,,,,,,
    #q,I(q),Error,fit,I(q)/I0,Error/I0,fit/I0,qRg,((qRg)^2)I(q)/I0,((qRg)^2)*Error/I0,((qRg)^2)*fit/I0
0.00752,0.01616,0.00052,0.01525,1.04705,0.03381,0.9881,0.19588,0.04017,0.0013,0.03791
0.0081,0.0156,0.00044,0.01522,1.01108,0.02856,0.98601,0.21095,0.04499,0.00127,0.04388
0.00868,0.01595,0.00038,0.01518,1.03355,0.02483,0.98377,0.22602,0.0528,0.00127,0.05025
0.00926,0.01572,0.00036,0.01514,1.01897,0.02356,0.98138,0.24108,0.05922,0.00137,0.05704
0.00984,0.01513,0.00031,0.0151,0.98071,0.0203,0.97885,0.25615,0.06435,0.00133,0.06423
0.01042,0.01551,0.0003,0.01506,1.00541,0.01965,0.97616,0.27122,0.07396,0.00145,0.07181
0.01099,0.01525,0.00029,0.01502,0.98839,0.01847,0.97333,0.28629,0.08101,0.00151,0.07977
0.01157,0.01569,0.00029,0.01497,1.01669,0.01862,0.97037,0.30136,0.09233,0.00169,0.08812
0.01215,0.01494,0.00027,0.01493,0.96827,0.01728,0.96726,0.31642,0.09695,0.00173,0.09685
0.01273,0.01549,0.00026,0.01488,1.00349,0.01691,0.96403,0.33149,0.11027,0.00186,0.10593
0.01331,0.01531,0.00026,0.01482,0.99212,0.01661,0.96066,0.34656,0.11916,0.00199,0.11538
0.01389,0.0153,0.00024,0.01477,0.99172,0.01525,0.95716,0.36163,0.12969,0.00199,0.12517
0.01447,0.01486,0.00024,0.01471,0.96329,0.01535,0.95353,0.37669,0.13669,0.00218,0.1353
0.01504,0.01475,0.00022,0.01466,0.95561,0.01425,0.94978,0.39176,0.14666,0.00219,0.14577
0.01562,0.01474,0.00023,0.0146,0.95531,0.01513,0.94591,0.40683,0.15811,0.0025,0.15656
0.0162,0.0148,0.00023,0.01454,0.95914,0.01459,0.94192,0.4219,0.17072,0.0026,0.16766
0.01678,0.01437,0.00021,0.01447,0.93133,0.01335,0.93782,0.43696,0.17783,0.00255,0.17907
0.01736,0.01454,0.00021,0.01441,0.94208,0.01337,0.93361,0.45203,0.1925,0.00273,0.19077
0.01794,0.01446,0.00019,0.01434,0.93713,0.01246,0.92928,0.4671,0.20446,0.00272,0.20275
0.01852,0.01444,0.0002,0.01427,0.93606,0.01315,0.92485,0.48217,0.21762,0.00306,0.21501
0.01909,0.01458,0.00019,0.0142,0.94478,0.01233,0.92031,0.49723,0.23359,0.00305,0.22754
0.01967,0.01401,0.00018,0.01413,0.90771,0.01181,0.91567,0.5123,0.23823,0.0031,0.24032
0.02025,0.01409,0.00019,0.01406,0.91298,0.01248,0.91094,0.52737,0.25392,0.00347,0.25335
0.02083,0.01426,0.00018,0.01398,0.92415,0.01153,0.9061,0.54244,0.27192,0.00339,0.26661
0.02141,0.014,0.00018,0.01391,0.90711,0.01158,0.90118,0.5575,0.28194,0.0036,0.2801
0.02199,0.0139,0.00016,0.01383,0.90108,0.01029,0.89616,0.57257,0.29541,0.00337,0.2938
0.02257,0.01419,0.00016,0.01375,0.91969,0.01037,0.89105,0.58764,0.31759,0.00358,0.3077
0.02314,0.01372,0.00016,0.01367,0.8892,0.01053,0.88586,0.60271,0.32301,0.00383,0.32179
0.02372,0.01367,0.00015,0.01359,0.88588,0.00979,0.88059,0.61777,0.33809,0.00374,0.33607
0.0243,0.01405,0.00015,0.01351,0.91049,0.00997,0.87524,0.63284,0.36464,0.00399,0.35052
0.02488,0.01374,0.00015,0.01342,0.89062,0.00945,0.86981,0.64791,0.37387,0.00397,0.36513
0.02546,0.01343,0.00015,0.01334,0.87052,0.00961,0.8643,0.66298,0.38262,0.00423,0.37989
0.02604,0.01319,0.00015,0.01325,0.85492,0.0097,0.85873,0.67804,0.39304,0.00446,0.39479
0.02662,0.0131,0.00014,0.01316,0.84862,0.00922,0.85308,0.69311,0.40768,0.00443,0.40982
0.02719,0.01313,0.00014,0.01308,0.85095,0.00926,0.84737,0.70818,0.42677,0.00464,0.42497
0.02777,0.01312,0.00013,0.01299,0.84998,0.00862,0.8416,0.72325,0.44461,0.00451,0.44023
0.02835,0.01285,0.00013,0.0129,0.83263,0.00859,0.83577,0.73831,0.45387,0.00468,0.45558
0.02893,0.01287,0.00013,0.01281,0.8338,0.00819,0.82987,0.75338,0.47325,0.00465,0.47102
0.02951,0.01303,0.00013,0.01271,0.84455,0.0082,0.82393,0.76845,0.49872,0.00484,0.48654
0.03009,0.01249,0.00013,0.01262,0.8097,0.00831,0.81793,0.78351,0.49707,0.0051,0.50212
0.03067,0.01221,0.00012,0.01253,0.79101,0.00794,0.81188,0.79858,0.50445,0.00506,0.51776
0.03124,0.01217,0.00013,0.01243,0.78834,0.00825,0.80578,0.81365,0.5219,0.00546,0.53345
0.03182,0.01219,0.00012,0.01234,0.79019,0.00757,0.79964,0.82872,0.54268,0.0052,0.54917
0.0324,0.01221,0.00012,0.01224,0.79154,0.0078,0.79346,0.84378,0.56355,0.00556,0.56492
0.03298,0.01236,0.00011,0.01215,0.80129,0.00744,0.78724,0.85885,0.59105,0.00548,0.58069
0.03356,0.01206,0.00011,0.01205,0.7815,0.00741,0.78099,0.87392,0.59685,0.00566,0.59647
0.03414,0.01177,0.00012,0.01195,0.76253,0.00751,0.7747,0.88898,0.60262,0.00594,0.61224
0.03472,0.01172,0.00011,0.01186,0.75966,0.00725,0.76838,0.90405,0.62088,0.00593,0.628
0.03529,0.01185,0.00011,0.01176,0.7682,0.00735,0.76203,0.91912,0.64896,0.00621,0.64375
0.03587,0.01149,0.00011,0.01166,0.74463,0.00733,0.75566,0.93419,0.64984,0.0064,0.65947
0.03645,0.01134,0.00011,0.01156,0.73514,0.00723,0.74927,0.94925,0.66242,0.00652,0.67515
0.03703,0.01169,0.00011,0.01146,0.75747,0.0074,0.74285,0.96432,0.70438,0.00688,0.69079
0.03761,0.01142,0.00011,0.01136,0.74028,0.00695,0.73642,0.97939,0.71007,0.00667,0.70637
0.03819,0.01116,0.00011,0.01126,0.72327,0.00726,0.72998,0.99445,0.71527,0.00718,0.7219
0.03877,0.01086,0.00011,0.01116,0.7035,0.00703,0.72352,1.00952,0.71696,0.00717,0.73736
0.03934,0.01095,0.00011,0.01107,0.70985,0.00688,0.71706,1.02459,0.74519,0.00723,0.75275
0.03992,0.01055,0.00011,0.01097,0.68378,0.00711,0.71059,1.03965,0.73908,0.00768,0.76806
0.0405,0.01095,0.00011,0.01087,0.70985,0.00685,0.70411,1.05472,0.78966,0.00761,0.78327
0.04108,0.01063,0.00011,0.01077,0.68904,0.00696,0.69763,1.06979,0.78856,0.00797,0.7984
0.04166,0.01061,0.0001,0.01067,0.6878,0.00666,0.69115,1.08485,0.80947,0.00783,0.81341
0.04224,0.01047,0.0001,0.01057,0.67841,0.00667,0.68466,1.09992,0.82076,0.00807,0.82832
0.04282,0.01035,0.0001,0.01047,0.67068,0.00671,0.67818,1.11499,0.83379,0.00835,0.84311
0.04339,0.01037,0.0001,0.01037,0.67205,0.00666,0.67171,1.13005,0.85822,0.0085,0.85779
0.04397,0.01041,0.0001,0.01027,0.67455,0.00664,0.66524,1.14512,0.88453,0.0087,0.87233
0.04455,0.01019,0.0001,0.01017,0.66034,0.00645,0.65878,1.16019,0.88883,0.00868,0.88674
0.04513,0.00981,0.0001,0.01007,0.63569,0.00665,0.65233,1.17525,0.87803,0.00918,0.901
0.04571,0.01006,0.0001,0.00997,0.65218,0.00642,0.64589,1.19032,0.92405,0.0091,0.91513
0.04629,0.00966,0.0001,0.00987,0.62626,0.00633,0.63946,1.20539,0.90993,0.0092,0.9291
0.04687,0.00959,0.0001,0.00977,0.62178,0.00645,0.63305,1.22045,0.92614,0.00961,0.94292
0.04744,0.00973,0.0001,0.00967,0.63051,0.00622,0.62665,1.23552,0.96248,0.00949,0.95659
0.04802,0.00954,0.0001,0.00957,0.61812,0.00641,0.62028,1.25058,0.96672,0.01003,0.97009
0.0486,0.00943,0.0001,0.00947,0.61089,0.00623,0.61392,1.26565,0.97856,0.00998,0.98342
0.04918,0.00938,0.00009,0.00938,0.60789,0.00614,0.60759,1.28072,0.99708,0.01007,0.99659
0.04976,0.00911,0.0001,0.00928,0.59007,0.00619,0.60128,1.29578,0.99076,0.0104,1.00959
0.05034,0.00934,0.00009,0.00918,0.60535,0.00609,0.595,1.31085,1.0402,0.01047,1.02241
0.05092,0.0089,0.0001,0.00909,0.57694,0.0062,0.58875,1.32591,1.0143,0.01091,1.03506
0.05149,0.00889,0.00009,0.00899,0.57638,0.00585,0.58253,1.34098,1.03646,0.01051,1.04752
0.05207,0.00897,0.00009,0.00889,0.58118,0.00609,0.57634,1.35605,1.0687,0.01121,1.05981
0.05265,0.00865,0.00009,0.0088,0.56031,0.00604,0.57019,1.37111,1.05336,0.01135,1.07192
0.05323,0.00846,0.00009,0.0087,0.54838,0.00591,0.56407,1.38618,1.0537,0.01136,1.08385
0.05381,0.00835,0.00009,0.00861,0.54082,0.00593,0.55799,1.40124,1.06189,0.01164,1.0956
0.05439,0.00829,0.00009,0.00852,0.53713,0.0058,0.55194,1.41631,1.07744,0.01164,1.10716
0.05497,0.00861,0.00009,0.00842,0.55765,0.00602,0.54594,1.43138,1.14253,0.01233,1.11855
0.05554,0.00817,0.00009,0.00833,0.52934,0.00603,0.53999,1.44644,1.10748,0.01262,1.12976
0.05612,0.00829,0.00009,0.00824,0.53742,0.00588,0.53408,1.46151,1.14794,0.01256,1.14079
0.0567,0.00821,0.00009,0.00815,0.53205,0.00607,0.52821,1.47657,1.16001,0.01323,1.15164
0.05728,0.00812,0.00009,0.00806,0.52593,0.00595,0.5224,1.49164,1.17019,0.01324,1.16233
0.05786,0.00805,0.0001,0.00797,0.52136,0.00634,0.51663,1.5067,1.18356,0.01438,1.17284
0.05844,0.00783,0.00009,0.00788,0.50715,0.00605,0.51092,1.52177,1.17445,0.01402,1.18318
0.05902,0.00791,0.0001,0.0078,0.51275,0.00626,0.50526,1.53684,1.21104,0.01478,1.19336
0.05959,0.00767,0.0001,0.00771,0.4969,0.00652,0.49965,1.5519,1.19672,0.01571,1.20336
0.06017,0.00752,0.0001,0.00762,0.48724,0.00623,0.4941,1.56697,1.19635,0.0153,1.2132
0.06075,0.00765,0.0001,0.00754,0.49545,0.00653,0.48859,1.58203,1.24003,0.01634,1.22287
0.06133,0.00743,0.0001,0.00746,0.48177,0.00625,0.48314,1.5971,1.22886,0.01593,1.23236
0.06191,0.00722,0.0001,0.00737,0.46777,0.00649,0.47775,1.61216,1.21577,0.01686,1.24169
0.06249,0.0075,0.0001,0.00729,0.48576,0.00649,0.4724,1.62723,1.28623,0.01719,1.25085
0.06307,0.00718,0.0001,0.00721,0.4654,0.00649,0.46711,1.64229,1.25523,0.01751,1.25984
0.06364,0.0071,0.0001,0.00713,0.46013,0.0066,0.46187,1.65736,1.26389,0.01812,1.26867
0.06422,0.00703,0.0001,0.00705,0.45528,0.00652,0.45668,1.67242,1.27341,0.01824,1.27733
0.0648,0.00687,0.0001,0.00697,0.44494,0.00663,0.45154,1.68749,1.26702,0.01887,1.28582
0.06538,0.00673,0.0001,0.00689,0.43603,0.00652,0.44646,1.70255,1.26391,0.0189,1.29415
0.06596,0.00668,0.0001,0.00681,0.43308,0.00651,0.44143,1.71762,1.27768,0.01921,1.30231
0.06654,0.00661,0.0001,0.00674,0.42853,0.00667,0.43645,1.73268,1.28652,0.02004,1.31032
0.06711,0.00661,0.0001,0.00666,0.42824,0.00672,0.43153,1.74775,1.30811,0.02051,1.31816
0.06769,0.00668,0.0001,0.00658,0.4326,0.00653,0.42666,1.76281,1.34431,0.02028,1.32585
0.06827,0.00644,0.0001,0.00651,0.41713,0.00631,0.42184,1.77788,1.31847,0.01995,1.33338
0.06885,0.00634,0.0001,0.00644,0.41104,0.00636,0.41708,1.79294,1.32135,0.02045,1.34076
0.06943,0.00626,0.0001,0.00636,0.40553,0.00654,0.41237,1.80801,1.32562,0.02137,1.34798
0.07001,0.00613,0.0001,0.00629,0.39702,0.00672,0.40771,1.82307,1.31952,0.02233,1.35506
0.07059,0.00605,0.0001,0.00622,0.39197,0.00655,0.4031,1.83814,1.32438,0.02213,1.36198
0.07116,0.00603,0.0001,0.00615,0.39076,0.00633,0.39855,1.8532,1.34201,0.02174,1.36877
0.07174,0.00606,0.0001,0.00608,0.39253,0.00671,0.39405,1.86826,1.37007,0.02341,1.37541
0.07232,0.00578,0.0001,0.00601,0.37469,0.00648,0.38961,1.88333,1.32901,0.023,1.38192
0.0729,0.00571,0.0001,0.00594,0.37021,0.00673,0.38522,1.89839,1.33419,0.02424,1.38829
0.07348,0.00566,0.0001,0.00588,0.36685,0.00658,0.38088,1.91346,1.34317,0.02408,1.39453
0.07406,0.00565,0.0001,0.00581,0.3661,0.00648,0.3766,1.92852,1.3616,0.02409,1.40064
0.07464,0.00583,0.00011,0.00575,0.37765,0.00683,0.37237,1.94359,1.42658,0.0258,1.40663
0.07521,0.0057,0.0001,0.00568,0.36939,0.00654,0.36819,1.95865,1.41709,0.02508,1.41249
0.07579,0.00546,0.0001,0.00562,0.35358,0.0067,0.36407,1.97371,1.37738,0.02608,1.41825
0.07637,0.00568,0.0001,0.00556,0.36801,0.00653,0.36,1.98878,1.45556,0.02583,1.42388
0.07695,0.00546,0.0001,0.00549,0.35368,0.00662,0.35598,2.00384,1.42014,0.02659,1.42941
0.07753,0.00544,0.00011,0.00543,0.35234,0.00692,0.35202,2.01891,1.43615,0.02821,1.43484
0.07811,0.00533,0.0001,0.00537,0.34555,0.00656,0.34812,2.03397,1.42953,0.02715,1.44017
0.07868,0.00529,0.0001,0.00531,0.34265,0.00672,0.34426,2.04903,1.43862,0.02821,1.44539
0.07926,0.00547,0.0001,0.00525,0.35465,0.00663,0.34046,2.0641,1.51099,0.02825,1.45052
0.07984,0.00524,0.0001,0.0052,0.33939,0.00673,0.33671,2.07916,1.46717,0.02907,1.45555
0.08042,0.0052,0.0001,0.00514,0.33666,0.00672,0.33301,2.09422,1.4765,0.02947,1.46049
0.081,0.00497,0.0001,0.00508,0.32179,0.00663,0.32936,2.10929,1.43167,0.0295,1.46534
0.08158,0.00491,0.0001,0.00503,0.31845,0.00676,0.32576,2.12435,1.43712,0.03049,1.47009
0.08216,0.00509,0.0001,0.00497,0.33002,0.00675,0.32221,2.13941,1.51054,0.03091,1.47477
0.08273,0.0049,0.0001,0.00492,0.31727,0.00671,0.3187,2.15448,1.47271,0.03113,1.47935
0.08331,0.00522,0.0001,0.00486,0.33806,0.00672,0.31525,2.16954,1.5912,0.03161,1.48386
0.08389,0.00485,0.0001,0.00481,0.31441,0.00669,0.31185,2.1846,1.50054,0.03195,1.48828
0.08447,0.0047,0.0001,0.00476,0.30446,0.00666,0.30849,2.19967,1.47314,0.03224,1.49262
0.08505,0.00477,0.00011,0.00471,0.30923,0.0069,0.30518,2.21473,1.51676,0.03385,1.49689
0.08563,0.00506,0.0001,0.00466,0.32816,0.00659,0.30191,2.22979,1.6316,0.03278,1.50109
0.0862,0.00462,0.0001,0.00461,0.29937,0.00669,0.29869,2.24486,1.50862,0.03373,1.50521
0.08678,0.00439,0.0001,0.00456,0.28431,0.00664,0.29551,2.25992,1.45206,0.03392,1.50926
0.08736,0.00458,0.0001,0.00451,0.2969,0.00679,0.29238,2.27498,1.53661,0.03517,1.51324
0.08794,0.00449,0.0001,0.00446,0.29065,0.00674,0.2893,2.29004,1.52428,0.03537,1.51716
0.08852,0.00447,0.0001,0.00442,0.2895,0.0068,0.28625,2.30511,1.53825,0.03611,1.52101
0.0891,0.00445,0.0001,0.00437,0.28834,0.00674,0.28325,2.32017,1.55218,0.03628,1.52479
0.08967,0.0045,0.0001,0.00433,0.2914,0.00679,0.28029,2.33523,1.58908,0.03705,1.52852
0.09025,0.00429,0.0001,0.00428,0.27803,0.00679,0.27738,2.35029,1.5358,0.0375,1.53219
0.09083,0.00424,0.0001,0.00424,0.27461,0.00671,0.2745,2.36536,1.53639,0.03755,1.5358
0.09141,0.00408,0.00011,0.00419,0.26466,0.00691,0.27166,2.38042,1.49969,0.03915,1.53935
0.09199,0.00425,0.00011,0.00415,0.27572,0.00691,0.26887,2.39548,1.58215,0.03964,1.54285
0.09257,0.00407,0.0001,0.00411,0.26396,0.00675,0.26611,2.41054,1.53381,0.0392,1.5463
0.09315,0.00413,0.0001,0.00406,0.26738,0.00661,0.26339,2.4256,1.57317,0.03889,1.54969
0.09372,0.00415,0.0001,0.00402,0.26925,0.0068,0.26071,2.44067,1.60388,0.04049,1.55304
0.0943,0.00409,0.00011,0.00398,0.26527,0.00687,0.25807,2.45573,1.59975,0.04142,1.55634
0.09488,0.00406,0.00011,0.00394,0.26304,0.00694,0.25547,2.47079,1.60579,0.04234,1.55959
0.09546,0.00413,0.0001,0.0039,0.26745,0.00671,0.2529,2.48585,1.65267,0.04148,1.56279
0.09604,0.00401,0.0001,0.00386,0.25966,0.00669,0.25037,2.50091,1.62407,0.04182,1.56595
0.09662,0.00375,0.00011,0.00383,0.24298,0.00683,0.24787,2.51598,1.53809,0.04322,1.56907
0.09719,0.0039,0.00011,0.00379,0.25259,0.00694,0.24541,2.53104,1.61813,0.04445,1.57215
0.09777,0.00393,0.00011,0.00375,0.25462,0.00684,0.24299,2.5461,1.65061,0.04436,1.57518
0.09835,0.00382,0.0001,0.00371,0.24754,0.00667,0.24059,2.56116,1.62375,0.04377,1.57818
0.09893,0.0037,0.00011,0.00368,0.24006,0.00685,0.23823,2.57622,1.59324,0.04547,1.58114
0.09951,0.00427,0.0001,0.00364,0.27649,0.0068,0.23591,2.59128,1.85653,0.04563,1.58407
0.10009,0.00354,0.0001,0.00361,0.22922,0.0067,0.23362,2.60634,1.55706,0.04553,1.58696
0.10066,0.00349,0.0001,0.00357,0.22594,0.00677,0.23136,2.6214,1.55261,0.04654,1.58983
0.10124,0.0036,0.0001,0.00354,0.23334,0.00678,0.22913,2.63647,1.62191,0.04711,1.59266
0.10182,0.00389,0.00011,0.0035,0.25222,0.00697,0.22693,2.65153,1.77326,0.04901,1.59546
0.1024,0.00343,0.00011,0.00347,0.22208,0.00681,0.22476,2.66659,1.57916,0.04839,1.59823
0.10298,0.00347,0.0001,0.00344,0.22496,0.00649,0.22263,2.68165,1.61776,0.04669,1.60097
0.10356,0.00336,0.0001,0.0034,0.21786,0.00629,0.22052,2.69671,1.58431,0.04572,1.60369
0.10413,0.00351,0.0001,0.00337,0.22726,0.00641,0.21845,2.71177,1.67117,0.04716,1.60639
0.10471,0.00343,0.0001,0.00334,0.22219,0.00659,0.2164,2.72683,1.65213,0.04902,1.60906
0.10529,0.00345,0.0001,0.00331,0.22353,0.00644,0.21438,2.74189,1.68046,0.04841,1.6117
0.10587,0.00325,0.0001,0.00328,0.21046,0.00668,0.21239,2.75695,1.5997,0.05078,1.61433
0.10645,0.00349,0.0001,0.00325,0.22593,0.00675,0.21043,2.77201,1.73608,0.05189,1.61693
0.10703,0.00327,0.0001,0.00322,0.21175,0.00665,0.20849,2.78707,1.64484,0.05166,1.61951
0.1076,0.00325,0.0001,0.00319,0.21043,0.00666,0.20658,2.80213,1.65232,0.05233,1.62208
0.10818,0.00325,0.0001,0.00316,0.21078,0.0067,0.2047,2.81719,1.67288,0.05315,1.62462
0.10876,0.00314,0.00011,0.00313,0.20369,0.00689,0.20284,2.83225,1.63396,0.05523,1.62714
0.10934,0.00326,0.0001,0.0031,0.21142,0.00676,0.20101,2.84731,1.71404,0.05483,1.62965
0.10992,0.00306,0.0001,0.00307,0.19822,0.00665,0.19921,2.86237,1.62405,0.0545,1.63213
0.1105,0.00317,0.0001,0.00305,0.20558,0.00657,0.19742,2.87743,1.7021,0.05438,1.6346
0.11107,0.00321,0.0001,0.00302,0.20782,0.00668,0.19567,2.89249,1.73869,0.05587,1.63705
0.11165,0.00305,0.0001,0.00299,0.19736,0.00665,0.19393,2.90755,1.66843,0.05625,1.63948
0.11223,0.00334,0.0001,0.00297,0.21637,0.00673,0.19222,2.92261,1.84815,0.05746,1.64189
0.11281,0.00294,0.0001,0.00294,0.19074,0.00669,0.19053,2.93767,1.64602,0.05769,1.64428
0.11339,0.00288,0.0001,0.00291,0.18655,0.00663,0.18887,2.95273,1.62642,0.05782,1.64666
0.11397,0.00269,0.0001,0.00289,0.17401,0.00671,0.18722,2.96779,1.53266,0.05909,1.64901
0.11454,0.00274,0.0001,0.00286,0.17752,0.0068,0.1856,2.98285,1.57949,0.06054,1.65135
0.11512,0.00297,0.0001,0.00284,0.19274,0.00661,0.184,2.99791,1.73222,0.05938,1.65366
0.1157,0.00287,0.0001,0.00281,0.18604,0.00662,0.18241,3.01296,1.68884,0.06007,1.65595
0.11628,0.00273,0.00011,0.00279,0.17703,0.00685,0.18085,3.02802,1.62322,0.06276,1.65822
0.11686,0.00262,0.0001,0.00277,0.16976,0.00673,0.17931,3.04308,1.57208,0.06234,1.66048
0.11744,0.00287,0.0001,0.00274,0.18606,0.00656,0.17779,3.05814,1.74009,0.06132,1.66271
0.11801,0.00274,0.0001,0.00272,0.1775,0.00671,0.17628,3.0732,1.67636,0.06333,1.66493
0.11859,0.0027,0.0001,0.0027,0.17509,0.00678,0.1748,3.08826,1.66992,0.0647,1.66713
0.11917,0.00255,0.00011,0.00267,0.16543,0.00695,0.17333,3.10332,1.5932,0.06696,1.66931
0.11975,0.00269,0.0001,0.00265,0.1746,0.00676,0.17189,3.11837,1.69782,0.06574,1.67148
0.12033,0.0027,0.00011,0.00263,0.17484,0.00685,0.17046,3.13343,1.71665,0.06722,1.67363
0.1209,0.00261,0.00011,0.00261,0.16919,0.00681,0.16905,3.14849,1.67721,0.06749,1.67578
0.12148,0.00256,0.00011,0.00259,0.16598,0.00682,0.16766,3.16355,1.66118,0.06829,1.6779
0.12206,0.00277,0.0001,0.00257,0.17943,0.00661,0.16628,3.17861,1.81283,0.0668,1.68002
0.12264,0.00254,0.0001,0.00254,0.1649,0.00673,0.16492,3.19366,1.68191,0.06866,1.68213
0.12322,0.00256,0.0001,0.00252,0.16603,0.00679,0.16358,3.20872,1.70942,0.06988,1.68422
0.1238,0.00224,0.00011,0.0025,0.14515,0.00681,0.16226,3.22378,1.50855,0.07073,1.68631
0.12437,0.00257,0.0001,0.00248,0.16633,0.00679,0.16095,3.23884,1.74476,0.07123,1.68838
0.12495,0.00248,0.0001,0.00246,0.16044,0.00671,0.15966,3.25389,1.69867,0.07101,1.69045
0.12553,0.00245,0.0001,0.00244,0.15853,0.00673,0.15838,3.26895,1.69409,0.07196,1.6925
0.12611,0.00245,0.0001,0.00242,0.15871,0.00679,0.15713,3.28401,1.71163,0.07326,1.69455
0.12669,0.00235,0.0001,0.00241,0.15223,0.0068,0.15588,3.29907,1.65686,0.07402,1.69659
0.12726,0.00262,0.0001,0.00239,0.16987,0.00675,0.15465,3.31412,1.86579,0.07413,1.69862
0.12784,0.00222,0.0001,0.00237,0.1437,0.00668,0.15344,3.32918,1.59264,0.07406,1.70064
0.12842,0.0025,0.0001,0.00235,0.16216,0.00669,0.15224,3.34424,1.8136,0.07478,1.70266
0.129,0.0024,0.00011,0.00233,0.15538,0.00684,0.15106,3.35929,1.75346,0.07724,1.70467
0.12958,0.00249,0.00011,0.00231,0.1612,0.00697,0.14989,3.37435,1.83541,0.07942,1.70667
0.13016,0.00247,0.00011,0.0023,0.15995,0.00687,0.14873,3.38941,1.83752,0.07896,1.70866
0.13073,0.00234,0.0001,0.00228,0.15151,0.00679,0.14759,3.40446,1.75611,0.07865,1.71064
0.13131,0.00224,0.00011,0.00226,0.145,0.00687,0.14646,3.41952,1.6955,0.08036,1.71262
0.13189,0.00242,0.0001,0.00224,0.15683,0.00672,0.14535,3.43458,1.85,0.07932,1.71459
0.13247,0.00254,0.0001,0.00223,0.16465,0.00659,0.14425,3.44963,1.95938,0.07848,1.71654
0.13305,0.00229,0.00011,0.00221,0.14851,0.00682,0.14316,3.46469,1.78268,0.08182,1.71849
0.13362,0.00229,0.0001,0.00219,0.14862,0.00679,0.14208,3.47974,1.79958,0.08217,1.72043
0.1342,0.00208,0.00011,0.00218,0.13457,0.00685,0.14102,3.4948,1.64363,0.08367,1.72236
0.13478,0.00248,0.0001,0.00216,0.16081,0.00675,0.13997,3.50986,1.98099,0.08321,1.72428
0.13536,0.00212,0.0001,0.00214,0.13724,0.00676,0.13893,3.52491,1.70526,0.08394,1.72618
0.13594,0.00235,0.00011,0.00213,0.15216,0.00684,0.1379,3.53997,1.9068,0.0857,1.72808
0.13652,0.00241,0.0001,0.00211,0.15616,0.00673,0.13688,3.55502,1.97352,0.08508,1.72997
0.13709,0.00191,0.0001,0.0021,0.12402,0.00677,0.13588,3.57008,1.58066,0.08631,1.73185
0.13767,0.00208,0.00011,0.00208,0.1349,0.00682,0.13489,3.58513,1.73386,0.0877,1.73372
0.13825,0.00194,0.0001,0.00207,0.12541,0.00651,0.1339,3.60019,1.62545,0.08433,1.73558
0.13883,0.00211,0.0001,0.00205,0.13669,0.00621,0.13293,3.61524,1.78653,0.08112,1.73743
0.13941,0.00194,0.0001,0.00204,0.12594,0.00619,0.13197,3.6303,1.65977,0.08152,1.73928
0.13998,0.00195,0.0001,0.00202,0.12616,0.0064,0.13102,3.64535,1.67648,0.08511,1.74112
0.14056,0.00209,0.0001,0.00201,0.13561,0.0065,0.13009,3.66041,1.81694,0.08709,1.74296
0.14114,0.00211,0.0001,0.00199,0.13681,0.00645,0.12916,3.67546,1.84817,0.08716,1.74479
0.14172,0.00212,0.0001,0.00198,0.13729,0.00656,0.12824,3.69052,1.86994,0.0894,1.74662
0.1423,0.00233,0.0001,0.00196,0.15099,0.00655,0.12733,3.70557,2.07328,0.0899,1.74844
0.14287,0.00191,0.0001,0.00195,0.12401,0.00664,0.12644,3.72063,1.7167,0.09185,1.75025
0.14345,0.00196,0.0001,0.00194,0.12684,0.00662,0.12555,3.73568,1.77005,0.09245,1.75207
0.14403,0.00184,0.0001,0.00192,0.11956,0.00668,0.12467,3.75073,1.68197,0.09391,1.75388
0.14461,0.00195,0.0001,0.00191,0.12626,0.00661,0.1238,3.76579,1.79051,0.09375,1.75568
0.14519,0.00202,0.0001,0.0019,0.13109,0.00666,0.12295,3.78084,1.87391,0.0952,1.75749
0.14577,0.00166,0.0001,0.00188,0.10732,0.0065,0.1221,3.7959,1.54636,0.0937,1.75929
0.14634,0.00172,0.0001,0.00187,0.11125,0.00657,0.12126,3.81095,1.61577,0.09539,1.76108
0.14692,0.00185,0.0001,0.00186,0.12018,0.00665,0.12043,3.826,1.75924,0.09737,1.76288
0.1475,0.00171,0.0001,0.00185,0.11051,0.00659,0.11961,3.84106,1.63036,0.09721,1.76467
0.14808,0.00183,0.0001,0.00183,0.11844,0.00675,0.1188,3.85611,1.76117,0.1003,1.76646
0.14866,0.00196,0.0001,0.00182,0.12719,0.00661,0.11799,3.87116,1.90602,0.0991,1.76824
0.14923,0.0021,0.0001,0.00181,0.13621,0.0067,0.1172,3.88621,2.05721,0.10122,1.77002
0.14981,0.0019,0.0001,0.0018,0.12324,0.00665,0.11641,3.90127,1.87563,0.1012,1.7718
0.15039,0.00182,0.00011,0.00178,0.1179,0.00682,0.11564,3.91632,1.80824,0.10461,1.77358
0.15097,0.00191,0.0001,0.00177,0.12365,0.00675,0.11487,3.93137,1.91104,0.10438,1.77535
0.15155,0.00176,0.0001,0.00176,0.11391,0.00678,0.11411,3.94643,1.77402,0.10566,1.77712
0.15212,0.00171,0.0001,0.00175,0.11098,0.00679,0.11335,3.96148,1.74161,0.10658,1.77889
0.1527,0.00164,0.0001,0.00174,0.10641,0.00669,0.11261,3.97653,1.68258,0.10575,1.78065
0.15328,0.00189,0.0001,0.00173,0.12243,0.00666,0.11187,3.99158,1.95063,0.10608,1.7824
0.15386,0.00188,0.0001,0.00172,0.12204,0.00677,0.11114,4.00663,1.95913,0.10874,1.78415
0.15444,0.00188,0.0001,0.0017,0.12155,0.00678,0.11042,4.02169,1.966,0.1097,1.7859
0.15501,0.00177,0.0001,0.00169,0.11452,0.00674,0.1097,4.03674,1.86611,0.10975,1.78764
0.15559,0.00172,0.0001,0.00168,0.11119,0.00669,0.109,4.05179,1.8254,0.10978,1.78938
0.15617,0.00197,0.0001,0.00167,0.12778,0.00677,0.1083,4.06684,2.11336,0.11201,1.79111
0.15675,0.0018,0.0001,0.00166,0.11644,0.00666,0.1076,4.08189,1.94018,0.11092,1.79284
0.15733,0.00158,0.0001,0.00165,0.10269,0.00668,0.10692,4.09695,1.72368,0.11217,1.79457
0.1579,0.00152,0.0001,0.00164,0.0986,0.00667,0.10624,4.112,1.66719,0.11271,1.7963
0.15848,0.0015,0.00011,0.00163,0.09718,0.00683,0.10556,4.12705,1.65525,0.11633,1.79802
0.15906,0.00176,0.0001,0.00162,0.11381,0.00675,0.1049,4.1421,1.95262,0.11578,1.79974
0.15964,0.00141,0.0001,0.00161,0.09166,0.0068,0.10424,4.15715,1.58408,0.11749,1.80146
0.16022,0.00157,0.0001,0.0016,0.10144,0.00671,0.10359,4.1722,1.76576,0.11676,1.80318
0.16079,0.00154,0.0001,0.00159,0.1,0.00664,0.10294,4.18725,1.75326,0.11637,1.8049
0.16137,0.00185,0.0001,0.00158,0.12006,0.00678,0.1023,4.2023,2.12022,0.11971,1.80662
0.16195,0.00172,0.0001,0.00157,0.1113,0.00673,0.10167,4.21735,1.97965,0.11967,1.80833
0.16253,0.0016,0.0001,0.00156,0.10367,0.00674,0.10105,4.2324,1.85709,0.12081,1.81005
0.16311,0.0015,0.00011,0.00155,0.09739,0.00683,0.10043,4.24745,1.75697,0.12325,1.81177
0.16368,0.00142,0.0001,0.00154,0.0923,0.00661,0.09981,4.2625,1.67696,0.12013,1.81348
0.16426,0.00154,0.0001,0.00153,0.09991,0.00677,0.09921,4.27755,1.82814,0.12389,1.8152
0.16484,0.00145,0.0001,0.00152,0.09397,0.00676,0.0986,4.2926,1.73152,0.1246,1.81692
0.16542,0.00169,0.0001,0.00151,0.10947,0.00672,0.09801,4.30765,2.03136,0.12477,1.81863
0.166,0.00175,0.0001,0.0015,0.11348,0.00673,0.09742,4.3227,2.12054,0.1258,1.82035
0.16657,0.00147,0.0001,0.00149,0.09536,0.00679,0.09684,4.33775,1.79424,0.12767,1.82207
0.16715,0.00146,0.0001,0.00149,0.0948,0.00663,0.09626,4.3528,1.79614,0.12553,1.82379
0.16773,0.00175,0.0001,0.00148,0.11338,0.00663,0.09569,4.36785,2.16301,0.12641,1.82551
0.16831,0.00181,0.0001,0.00147,0.11723,0.00679,0.09512,4.3829,2.25189,0.13039,1.82724
0.16888,0.00161,0.0001,0.00146,0.10446,0.00671,0.09456,4.39795,2.02055,0.12987,1.82896
0.16946,0.00146,0.0001,0.00145,0.0946,0.00664,0.094,4.413,1.84228,0.12926,1.83068
0.17004,0.00163,0.0001,0.00144,0.10541,0.00675,0.09345,4.42804,2.0668,0.13232,1.83241
0.17062,0.00139,0.0001,0.00143,0.09018,0.00674,0.09291,4.44309,1.78016,0.13308,1.83413
0.1712,0.00147,0.0001,0.00143,0.09552,0.00661,0.09237,4.45814,1.89837,0.13137,1.83585
0.17177,0.00177,0.0001,0.00142,0.11438,0.00668,0.09184,4.47319,2.28876,0.13358,1.83758
0.17235,0.00152,0.0001,0.00141,0.09847,0.00671,0.09131,4.48824,1.98367,0.13523,1.8393
0.17293,0.00127,0.00011,0.0014,0.08209,0.00681,0.09078,4.50329,1.66482,0.13817,1.84103
0.17351,0.0017,0.0001,0.00139,0.11025,0.0064,0.09026,4.51833,2.2507,0.13073,1.84275
0.17409,0.00143,0.00009,0.00138,0.0926,0.00602,0.08975,4.53338,1.90297,0.12379,1.84447
0.17466,0.00167,0.00009,0.00138,0.108,0.00607,0.08924,4.54843,2.23428,0.12548,1.8462
0.17524,0.0014,0.0001,0.00137,0.09058,0.00633,0.08873,4.56348,1.88627,0.13173,1.84792
0.17582,0.00138,0.0001,0.00136,0.08944,0.00642,0.08823,4.57852,1.87496,0.13451,1.84965
0.1764,0.00157,0.0001,0.00135,0.1016,0.00644,0.08774,4.59357,2.14391,0.13585,1.85137
0.17697,0.00131,0.0001,0.00135,0.08504,0.00649,0.08725,4.60862,1.80621,0.13792,1.8531
0.17755,0.00131,0.0001,0.00134,0.08508,0.00657,0.08676,4.62366,1.81883,0.14046,1.85482
0.17813,0.00173,0.0001,0.00133,0.11224,0.00647,0.08628,4.63871,2.4151,0.13927,1.85655
0.17871,0.00104,0.0001,0.00132,0.06754,0.00648,0.0858,4.65376,1.46267,0.1404,1.85828
0.17929,0.0013,0.0001,0.00132,0.08423,0.00656,0.08533,4.6688,1.83609,0.14298,1.86001
0.17986,0.00106,0.0001,0.00131,0.0688,0.00656,0.08486,4.68385,1.50927,0.14383,1.86174
0.18044,0.00144,0.0001,0.0013,0.09355,0.00665,0.0844,4.6989,2.06547,0.14682,1.86347
0.18102,0.00132,0.0001,0.0013,0.0855,0.00659,0.08394,4.71394,1.89994,0.14636,1.86521
0.1816,0.00157,0.0001,0.00129,0.1017,0.00653,0.08348,4.72899,2.27443,0.1461,1.86695
0.18217,0.00146,0.0001,0.00128,0.0947,0.00657,0.08303,4.74403,2.1313,0.14785,1.86868
0.18275,0.00148,0.0001,0.00127,0.09565,0.00663,0.08258,4.75908,2.16644,0.15021,1.87042
0.18333,0.00143,0.0001,0.00127,0.09254,0.00669,0.08214,4.77413,2.10928,0.15245,1.87216
0.18391,0.00148,0.0001,0.00126,0.09588,0.0066,0.0817,4.78917,2.19916,0.15138,1.87391
0.18449,0.00126,0.0001,0.00125,0.08194,0.00668,0.08127,4.80422,1.8912,0.15414,1.87565
0.18506,0.00152,0.0001,0.00125,0.09869,0.00673,0.08083,4.81926,2.29208,0.15621,1.8774
0.18564,0.00106,0.0001,0.00124,0.0687,0.0067,0.08041,4.83431,1.60559,0.15653,1.87915
0.18622,0.00124,0.0001,0.00123,0.08051,0.00673,0.07998,4.84935,1.89317,0.1583,1.88089
0.1868,0.00131,0.0001,0.00123,0.08512,0.00666,0.07956,4.8644,2.01405,0.15759,1.88264
0.18737,0.00108,0.0001,0.00122,0.07001,0.00663,0.07915,4.87944,1.6669,0.15779,1.8844
0.18795,0.00107,0.0001,0.00121,0.06933,0.00659,0.07873,4.89448,1.6608,0.15781,1.88615
0.18853,0.00125,0.0001,0.00121,0.08131,0.00675,0.07832,4.90953,1.9599,0.16279,1.8879
0.18911,0.00121,0.0001,0.0012,0.07817,0.00668,0.07792,4.92457,1.89562,0.16202,1.88965
0.18969,0.00125,0.0001,0.0012,0.08116,0.00669,0.07752,4.93962,1.98038,0.16327,1.89141
0.19026,0.00123,0.0001,0.00119,0.07978,0.0067,0.07712,4.95466,1.95858,0.16444,1.89316
0.19084,0.00155,0.0001,0.00118,0.10066,0.00676,0.07672,4.9697,2.48601,0.167,1.89491
0.19142,0.00114,0.0001,0.00118,0.07382,0.00666,0.07633,4.98475,1.8342,0.1655,1.89666
0.192,0.00137,0.0001,0.00117,0.08885,0.00666,0.07594,4.99979,2.22107,0.16654,1.89842
0.19257,0.00117,0.0001,0.00117,0.07609,0.00657,0.07556,5.01483,1.91367,0.16526,1.90017
0.19315,0.00145,0.0001,0.00116,0.09412,0.00671,0.07518,5.02988,2.38114,0.1698,1.90192
0.19373,0.00123,0.0001,0.00115,0.07967,0.00678,0.0748,5.04492,2.02769,0.17248,1.90366
0.19431,0.00117,0.0001,0.00115,0.07574,0.00667,0.07442,5.05996,1.93931,0.17087,1.90541
0.19488,0.00099,0.0001,0.00114,0.064,0.00665,0.07405,5.07501,1.64831,0.17118,1.90716
0.19546,0.00129,0.0001,0.00114,0.08384,0.00663,0.07368,5.09005,2.17222,0.17172,1.9089
0.19604,0.0011,0.0001,0.00113,0.07151,0.00665,0.07331,5.10509,1.86375,0.17334,1.91065
0.19662,0.00132,0.0001,0.00113,0.08539,0.00664,0.07295,5.12013,2.23855,0.17396,1.9124
0.19719,0.0014,0.0001,0.00112,0.09073,0.00662,0.07259,5.13517,2.39262,0.17462,1.91414
0.19777,0.00127,0.0001,0.00111,0.08234,0.00664,0.07223,5.15022,2.18402,0.17612,1.91588
0.19835,0.00118,0.0001,0.00111,0.07615,0.0067,0.07188,5.16526,2.03173,0.17875,1.91763
0.19893,0.00116,0.0001,0.0011,0.07537,0.0067,0.07152,5.1803,2.0227,0.17978,1.91937
0.19951,0.00136,0.0001,0.0011,0.08823,0.0067,0.07117,5.19534,2.38145,0.1808,1.92111
0.20008,0.00117,0.0001,0.00109,0.07592,0.00658,0.07083,5.21038,2.06121,0.17859,1.92286
0.20066,0.00119,0.0001,0.00109,0.0772,0.00674,0.07049,5.22542,2.1079,0.18397,1.9246
0.20124,0.00113,0.0001,0.00108,0.07303,0.00674,0.07014,5.24046,2.00559,0.18497,1.92634
0.20182,0.00131,0.0001,0.00108,0.08464,0.00662,0.06981,5.2555,2.3377,0.18295,1.92808
0.20239,0.00115,0.0001,0.00107,0.07483,0.00655,0.06947,5.27055,2.07879,0.18207,1.92982
0.20297,0.00099,0.0001,0.00107,0.06439,0.00669,0.06914,5.28559,1.79899,0.18703,1.93156
0.20355,0.00131,0.0001,0.00106,0.0848,0.00675,0.06881,5.30063,2.3825,0.18957,1.9333
0.20413,0.0009,0.0001,0.00106,0.05862,0.00664,0.06848,5.31567,1.6563,0.18762,1.93504
0.2047,0.00108,0.0001,0.00105,0.07012,0.00671,0.06816,5.33071,1.99248,0.19064,1.93677
0.20528,0.00104,0.0001,0.00105,0.06748,0.00665,0.06783,5.34575,1.92845,0.19012,1.93851
0.20586,0.00121,0.0001,0.00104,0.07833,0.00665,0.06751,5.36079,2.25112,0.19117,1.94024
0.20644,0.00117,0.0001,0.00104,0.07565,0.00663,0.0672,5.37583,2.18616,0.19167,1.94198
0.20701,0.00121,0.0001,0.00103,0.0787,0.00672,0.06688,5.39086,2.28723,0.19525,1.94371
0.20759,0.0013,0.0001,0.00103,0.08393,0.00666,0.06657,5.4059,2.45283,0.19477,1.94544
0.20817,0.00123,0.0001,0.00102,0.07995,0.00658,0.06626,5.42094,2.34937,0.19348,1.94717
0.20875,0.00092,0.0001,0.00102,0.05975,0.00633,0.06595,5.43598,1.7657,0.18702,1.94889
0.20932,0.00086,0.00009,0.00101,0.05568,0.00593,0.06565,5.45102,1.65443,0.17612,1.95061
0.2099,0.00112,0.00009,0.00101,0.07285,0.00602,0.06534,5.46606,2.17646,0.18,1.95234
0.21048,0.00129,0.0001,0.001,0.08391,0.00627,0.06504,5.4811,2.52076,0.1885,1.95405
0.21106,0.00114,0.0001,0.001,0.07419,0.00625,0.06474,5.49614,2.24123,0.18869,1.95577
0.21163,0.0009,0.0001,0.00099,0.05812,0.00624,0.06445,5.51117,1.76526,0.18951,1.95748
0.21221,0.00117,0.0001,0.00099,0.07613,0.00643,0.06415,5.52621,2.32506,0.19643,1.95919
0.21279,0.00096,0.0001,0.00099,0.06205,0.00647,0.06386,5.54125,1.90534,0.19876,1.96089
0.21337,0.00122,0.0001,0.00098,0.07926,0.00635,0.06357,5.55629,2.4469,0.19591,1.96259
0.21394,0.0011,0.0001,0.00098,0.07155,0.00646,0.06328,5.57132,2.22095,0.20043,1.96429
0.21452,0.00105,0.0001,0.00097,0.06797,0.00644,0.063,5.58636,2.12103,0.20086,1.96599
0.2151,0.00103,0.0001,0.00097,0.06677,0.00649,0.06271,5.6014,2.09489,0.20352,1.96768
0.21568,0.00123,0.0001,0.00096,0.07964,0.00646,0.06243,5.61644,2.51225,0.20371,1.96936
0.21625,0.0011,0.0001,0.00096,0.07112,0.00643,0.06215,5.63147,2.25557,0.2039,1.97105
0.21683,0.00119,0.0001,0.00095,0.07734,0.00659,0.06187,5.64651,2.4657,0.21025,1.97273
0.21741,0.00084,0.0001,0.00095,0.05475,0.00678,0.0616,5.66155,1.75497,0.21718,1.97441
0.21799,0.00106,0.0001,0.00095,0.06864,0.0066,0.06132,5.67658,2.21178,0.2127,1.97608
0.21856,0.00107,0.0001,0.00094,0.06928,0.00667,0.06105,5.69162,2.24423,0.21611,1.97776
0.21914,0.00122,0.0001,0.00094,0.07903,0.00666,0.06078,5.70665,2.57355,0.21683,1.97942
0.21972,0.00094,0.0001,0.00093,0.06095,0.00664,0.06051,5.72169,1.99537,0.21732,1.98109
0.22029,0.00083,0.0001,0.00093,0.05398,0.00659,0.06025,5.73673,1.77642,0.217,1.98275
0.22087,0.00092,0.0001,0.00093,0.05983,0.00666,0.05998,5.75176,1.97924,0.22021,1.98441
0.22145,0.00087,0.0001,0.00092,0.05666,0.00663,0.05972,5.7668,1.88438,0.22049,1.98606
0.22203,0.00122,0.0001,0.00092,0.07894,0.0066,0.05946,5.78183,2.63907,0.22061,1.98771
0.2226,0.00123,0.0001,0.00091,0.07976,0.00664,0.0592,5.79687,2.68016,0.22321,1.98936
0.22318,0.00116,0.0001,0.00091,0.07509,0.00663,0.05894,5.8119,2.53631,0.22399,1.991
0.22376,0.00098,0.0001,0.00091,0.06381,0.00666,0.05869,5.82694,2.16671,0.22603,1.99264
0.22434,0.00104,0.0001,0.0009,0.06732,0.00673,0.05843,5.84197,2.29766,0.22956,1.99428
0.22491,0.00114,0.0001,0.0009,0.07403,0.00665,0.05818,5.857,2.53965,0.22825,1.99591
0.22549,0.00106,0.0001,0.00089,0.06887,0.0066,0.05793,5.87204,2.37469,0.2275,1.99754
0.22607,0.00089,0.0001,0.00089,0.05763,0.00671,0.05768,5.88707,1.99726,0.23248,1.99916
0.22665,0.00088,0.0001,0.00089,0.05671,0.00667,0.05744,5.90211,1.97563,0.23223,2.00078
0.22722,0.00089,0.0001,0.00088,0.05781,0.00668,0.05719,5.91714,2.02392,0.23395,2.00239
0.2278,0.00098,0.0001,0.00088,0.06357,0.0066,0.05695,5.93217,2.23697,0.23227,2.004
0.22838,0.00108,0.0001,0.00088,0.06967,0.00672,0.0567,5.94721,2.46432,0.23763,2.0056
0.22895,0.0011,0.0001,0.00087,0.07132,0.00663,0.05646,5.96224,2.53522,0.23556,2.0072
0.22953,0.00101,0.0001,0.00087,0.0656,0.0067,0.05622,5.97727,2.34367,0.23953,2.00879
0.23011,0.00091,0.0001,0.00086,0.05917,0.00662,0.05599,5.9923,2.12453,0.23767,2.01038
0.23069,0.0007,0.0001,0.00086,0.04542,0.00666,0.05575,6.00734,1.63921,0.24047,2.01196
0.23126,0.00097,0.0001,0.00086,0.06262,0.00667,0.05552,6.02237,2.27128,0.24201,2.01354
0.23184,0.0009,0.0001,0.00085,0.05836,0.00659,0.05528,6.0374,2.12709,0.24034,2.01511
0.23242,0.00087,0.0001,0.00085,0.05642,0.00667,0.05505,6.05243,2.06683,0.24451,2.01667
0.233,0.0009,0.0001,0.00085,0.05852,0.00666,0.05482,6.06746,2.15427,0.2452,2.01823
0.23357,0.00101,0.0001,0.00084,0.0652,0.00659,0.05459,6.0825,2.41209,0.24379,2.01978
0.23415,0.00084,0.0001,0.00084,0.05463,0.00655,0.05437,6.09753,2.03097,0.24335,2.02133
0.23473,0.00068,0.0001,0.00084,0.04389,0.00656,0.05414,6.11256,1.63984,0.24508,2.02287
0.2353,0.00092,0.0001,0.00083,0.05992,0.00656,0.05392,6.12759,2.24978,0.24644,2.02441
0.23588,0.00087,0.0001,0.00083,0.05611,0.00671,0.05369,6.14262,2.11709,0.25324,2.02594
0.23646,0.00058,0.0001,0.00083,0.03768,0.00663,0.05347,6.15765,1.42859,0.25127,2.02747
0.23704,0.00121,0.0001,0.00082,0.07827,0.00662,0.05325,6.17268,2.98242,0.2524,2.02899
0.23761,0.00087,0.0001,0.00082,0.05635,0.00661,0.05303,6.18771,2.15752,0.25292,2.03051
0.23819,0.00068,0.0001,0.00082,0.0438,0.00665,0.05282,6.20274,1.685,0.25593,2.03202
0.23877,0.00084,0.0001,0.00081,0.0542,0.00664,0.0526,6.21777,2.09542,0.25659,2.03353
0.23934,0.00075,0.0001,0.00081,0.04887,0.00662,0.05238,6.2328,1.89839,0.25733,2.03504
0.23992,0.00078,0.0001,0.00081,0.05057,0.0066,0.05217,6.24783,1.97395,0.25758,2.03654
0.2405,0.0007,0.0001,0.0008,0.04519,0.00668,0.05196,6.26286,1.77259,0.26204,2.03804
0.24108,0.00107,0.0001,0.0008,0.06922,0.00664,0.05175,6.27789,2.72799,0.26163,2.03953
0.24165,0.00085,0.0001,0.0008,0.05485,0.00656,0.05154,6.29292,2.17198,0.2597,2.04102
0.24223,0.00086,0.0001,0.00079,0.05597,0.00659,0.05133,6.30795,2.22698,0.26202,2.04251
0.24281,0.00098,0.0001,0.00079,0.06355,0.00665,0.05113,6.32298,2.54059,0.26599,2.04399
0.24338,0.00083,0.0001,0.00079,0.05372,0.00663,0.05092,6.33801,2.15803,0.26652,2.04547
0.24396,0.00082,0.0001,0.00078,0.05346,0.00625,0.05072,6.35303,2.15773,0.25213,2.04695
0.24454,0.00091,0.00009,0.00078,0.05928,0.00581,0.05051,6.36806,2.40401,0.23543,2.04842
0.24512,0.00102,0.00009,0.00078,0.06582,0.00591,0.05031,6.38309,2.68172,0.24087,2.04989
0.24569,0.00098,0.00009,0.00077,0.06325,0.00613,0.05011,6.39812,2.58914,0.25076,2.05135
0.24627,0.00078,0.0001,0.00077,0.05052,0.0062,0.04991,6.41315,2.07771,0.25509,2.05282
0.24685,0.00075,0.0001,0.00077,0.04867,0.00633,0.04971,6.42817,2.011,0.26152,2.05428
0.24742,0.00089,0.0001,0.00076,0.05772,0.00635,0.04952,6.4432,2.3964,0.26362,2.05573
0.248,0.0009,0.0001,0.00076,0.05827,0.00642,0.04932,6.45823,2.43032,0.26763,2.05719
0.24858,0.00104,0.0001,0.00076,0.06712,0.0064,0.04913,6.47325,2.81254,0.26839,2.05864
0.24916,0.00094,0.0001,0.00076,0.06109,0.00643,0.04894,6.48828,2.57161,0.27084,2.06009
0.24973,0.00079,0.0001,0.00075,0.05136,0.0065,0.04874,6.50331,2.1723,0.27502,2.06153
0.25031,0.00084,0.0001,0.00075,0.05423,0.00646,0.04855,6.51833,2.30399,0.2746,2.06297
0.25089,0.00096,0.0001,0.00075,0.06214,0.00664,0.04836,6.53336,2.65233,0.28361,2.06441
0.25146,0.00085,0.0001,0.00074,0.05477,0.00655,0.04818,6.54838,2.34876,0.28095,2.06585
0.25204,0.00091,0.0001,0.00074,0.05926,0.00659,0.04799,6.56341,2.55271,0.28375,2.06728
0.25262,0.00103,0.0001,0.00074,0.06703,0.00652,0.0478,6.57844,2.90092,0.28209,2.06872
0.25319,0.0007,0.0001,0.00073,0.0452,0.00656,0.04762,6.59346,1.96482,0.28538,2.07015
0.25377,0.00099,0.0001,0.00073,0.064,0.00664,0.04743,6.60849,2.79497,0.28993,2.07157
0.25435,0.00104,0.0001,0.00073,0.06723,0.00665,0.04725,6.62351,2.94935,0.29163,2.073
0.25493,0.0008,0.0001,0.00073,0.05171,0.00663,0.04707,6.63854,2.27908,0.2923,2.07442
0.2555,0.00089,0.0001,0.00072,0.05743,0.00653,0.04689,6.65356,2.54241,0.28903,2.07584
0.25608,0.00104,0.0001,0.00072,0.06727,0.00666,0.04671,6.66858,2.99163,0.2961,2.07726
0.25666,0.00041,0.0001,0.00072,0.02631,0.00656,0.04653,6.68361,1.17535,0.29309,2.07867
0.25723,0.00053,0.0001,0.00072,0.0345,0.00654,0.04636,6.69863,1.54819,0.29334,2.08009
0.25781,0.00076,0.0001,0.00071,0.04951,0.00656,0.04618,6.71366,2.23173,0.29567,2.0815
0.25839,0.00094,0.0001,0.00071,0.06097,0.00664,0.04601,6.72868,2.76031,0.30085,2.08291
0.25896,0.00082,0.0001,0.00071,0.05326,0.00662,0.04583,6.7437,2.42219,0.30124,2.08432
0.25954,0.00072,0.0001,0.0007,0.04654,0.0066,0.04566,6.75873,2.12587,0.30148,2.08572
0.26012,0.00079,0.0001,0.0007,0.05105,0.00657,0.04549,6.77375,2.34216,0.30145,2.08713
0.26069,0.00083,0.0001,0.0007,0.05377,0.00661,0.04532,6.78877,2.47827,0.30457,2.08853
0.26127,0.00083,0.0001,0.0007,0.05357,0.00651,0.04515,6.80379,2.47992,0.30121,2.08993
0.26185,0.0007,0.0001,0.00069,0.04548,0.00662,0.04498,6.81882,2.11454,0.30779,2.09133
0.26242,0.00079,0.0001,0.00069,0.05135,0.00663,0.04481,6.83384,2.3982,0.30974,2.09272
0.263,0.00062,0.0001,0.00069,0.03994,0.0066,0.04464,6.84886,1.87349,0.30969,2.09412
0.26358,0.00094,0.0001,0.00069,0.06075,0.0066,0.04448,6.86388,2.86196,0.31082,2.09551
0.26416,0.00071,0.0001,0.00068,0.0457,0.00664,0.04431,6.8789,2.16228,0.31412,2.0969
0.26473,0.00079,0.0001,0.00068,0.05146,0.00663,0.04415,6.89392,2.44586,0.31512,2.09829
0.26531,0.00073,0.0001,0.00068,0.04719,0.00664,0.04399,6.90895,2.25273,0.3171,2.09968
0.26589,0.00098,0.0001,0.00068,0.06343,0.00658,0.04383,6.92397,3.04089,0.31538,2.10106
0.26646,0.00064,0.0001,0.00067,0.04147,0.0067,0.04366,6.93899,1.99698,0.32259,2.10245
0.26704,0.00103,0.0001,0.00067,0.06659,0.00658,0.04351,6.95401,3.22009,0.318,2.10383
0.26762,0.00087,0.0001,0.00067,0.05631,0.00653,0.04335,6.96903,2.73496,0.31716,2.10521
0.26819,0.00073,0.0001,0.00067,0.04748,0.00648,0.04319,6.98405,2.31609,0.31583,2.10658
0.26877,0.00061,0.0001,0.00066,0.03925,0.00658,0.04303,6.99907,1.9227,0.32222,2.10796
0.26935,0.0006,0.0001,0.00066,0.03864,0.00655,0.04287,7.01409,1.90087,0.32241,2.10933
0.26992,0.00073,0.0001,0.00066,0.04729,0.00653,0.04272,7.02911,2.33662,0.32241,2.1107
0.2705,0.0008,0.0001,0.00066,0.05163,0.0066,0.04257,7.04413,2.56166,0.32752,2.11207
0.27108,0.00077,0.0001,0.00065,0.04994,0.00657,0.04241,7.05915,2.48882,0.32727,2.11344
0.27165,0.00085,0.0001,0.00065,0.05484,0.00659,0.04226,7.07416,2.74455,0.33004,2.1148
0.27223,0.00089,0.0001,0.00065,0.05788,0.00647,0.04211,7.08918,2.90891,0.32535,2.11617
0.27281,0.00071,0.0001,0.00065,0.04608,0.00646,0.04196,7.1042,2.32556,0.32602,2.11753
0.27338,0.00056,0.0001,0.00065,0.03632,0.00661,0.04181,7.11922,1.84066,0.33499,2.11889
0.27396,0.00071,0.0001,0.00064,0.04617,0.00652,0.04166,7.13424,2.35018,0.33167,2.12025
0.27454,0.00084,0.0001,0.00064,0.05417,0.00654,0.04151,7.14926,2.76896,0.33442,2.1216
0.27511,0.00058,0.0001,0.00064,0.03768,0.00657,0.04136,7.16427,1.93395,0.33698,2.12296
0.27569,0.00064,0.0001,0.00064,0.04157,0.00661,0.04121,7.17929,2.14244,0.34045,2.12431
0.27627,0.00059,0.0001,0.00063,0.03837,0.00657,0.04107,7.19431,1.98587,0.34027,2.12566
0.27684,0.00069,0.0001,0.00063,0.04472,0.00659,0.04092,7.20932,2.32449,0.34226,2.12701
0.27742,0.00064,0.0001,0.00063,0.04147,0.00665,0.04078,7.22434,2.16411,0.34682,2.12836
0.278,0.00088,0.0001,0.00063,0.05679,0.00655,0.04064,7.23936,2.97647,0.34307,2.12971
0.27857,0.00073,0.0001,0.00062,0.04761,0.00657,0.04049,7.25437,2.50545,0.34596,2.13105
0.27915,0.00073,0.00011,0.00062,0.04706,0.00696,0.04035,7.26939,2.48699,0.36777,2.13239