File: 2025/starling_2025/figures/experimental_comparison/saxs_scattering/experiment/tau_504_758/mff_out.csv
#File Plotted Below: tau_504_758_clean.dat,,,,,,,,,,
,,,,,,,,,,
    #Fit from 0.01-0.15 with polymer MFF,,,,,,,,,,
#Initial search parameter for I0 = 0.0144248,,,,,,,,,,
#Initial search parameter for Rg = 30,,,,,,,,,,
#Initial search parameter for nu = 0.499881,,,,,,,,,,
#BestFit for I0 = 0.01631 +- 0.00005,,,,,,,,,,
#BestFit for I(0)/I0 = 1.00000 +- 0.00302,,,,,,,,,,
#BestFit for Rg = 49.25473 +- 0.13971,,,,,,,,,,
#BestFit for nu = 0.58626 +- 0.00225,,,,,,,,,,
#BestFit reduced chisquared = 1.02824,,,,,,,,,,
#-------------,,,,,,,,,,
#-------------,,,,,,,,,,
,,,,,,,,,,
    #q,I(q),Error,fit,I(q)/I0,Error/I0,fit/I0,qRg,((qRg)^2)I(q)/I0,((qRg)^2)*Error/I0,((qRg)^2)*fit/I0
0.00951,0.01447,0.00035,0.01515,0.88718,0.02136,0.92874,0.46854,0.19476,0.00469,0.20388
0.0109,0.01445,0.00029,0.01481,0.88615,0.01774,0.90775,0.53677,0.25532,0.00511,0.26155
0.01228,0.0141,0.00025,0.01443,0.86432,0.01528,0.88482,0.60501,0.31637,0.00559,0.32387
0.01367,0.01382,0.00022,0.01403,0.84733,0.0135,0.8602,0.67324,0.38405,0.00612,0.38989
0.01505,0.01407,0.0002,0.01361,0.86238,0.01231,0.83416,0.74147,0.47412,0.00677,0.4586
0.01644,0.01327,0.00019,0.01316,0.81349,0.0114,0.80695,0.80971,0.53335,0.00747,0.52906
0.01782,0.01298,0.00017,0.0127,0.7958,0.01065,0.77882,0.87794,0.61339,0.00821,0.6003
0.01921,0.0127,0.00017,0.01223,0.77857,0.01056,0.75004,0.94617,0.69701,0.00945,0.67147
0.0206,0.01187,0.00017,0.01176,0.72791,0.0102,0.72086,1.01441,0.74903,0.0105,0.74178
0.02198,0.01143,0.00016,0.01128,0.70073,0.01001,0.6915,1.08264,0.82133,0.01173,0.81052
0.02337,0.01082,0.00016,0.0108,0.66309,0.00989,0.66216,1.15088,0.87827,0.0131,0.87705
0.02475,0.01016,0.00016,0.01032,0.62298,0.00956,0.63301,1.21911,0.92588,0.0142,0.9408
0.02614,0.00991,0.00015,0.00986,0.6074,0.00934,0.60421,1.28734,1.00661,0.01548,1.00133
0.02752,0.00931,0.00015,0.00939,0.57083,0.00912,0.57594,1.35557,1.04895,0.01675,1.05834
0.02891,0.00898,0.00014,0.00894,0.55034,0.00885,0.54837,1.42381,1.11567,0.01794,1.11168
0.03029,0.00851,0.00014,0.00851,0.52155,0.00865,0.52168,1.49204,1.16106,0.01926,1.16135
0.03168,0.00786,0.00014,0.00809,0.4818,0.00845,0.49601,1.56028,1.17291,0.02056,1.20751
0.03306,0.00775,0.00014,0.00769,0.47504,0.00828,0.47141,1.62851,1.25983,0.02196,1.2502
0.03445,0.00731,0.00014,0.00731,0.44813,0.00841,0.44789,1.69675,1.29013,0.0242,1.28944
0.03583,0.00656,0.00014,0.00694,0.4019,0.00859,0.42544,1.76498,1.25197,0.02676,1.32532
0.03722,0.00692,0.00014,0.00659,0.42456,0.00875,0.40409,1.83321,1.42679,0.0294,1.358
0.0386,0.00615,0.00014,0.00626,0.3768,0.00879,0.38381,1.90144,1.36233,0.03176,1.38768
0.03999,0.00603,0.00014,0.00595,0.36989,0.00884,0.36463,1.96968,1.43504,0.03429,1.41464
0.04138,0.00553,0.00014,0.00565,0.33905,0.00835,0.34655,2.03791,1.40811,0.03467,1.43924
0.04276,0.0057,0.00013,0.00537,0.34974,0.00808,0.32953,2.10615,1.55138,0.03583,1.46174
0.04415,0.00529,0.00013,0.00511,0.32462,0.00775,0.31353,2.17438,1.53477,0.03663,1.48235
0.04553,0.00495,0.00012,0.00487,0.3033,0.00753,0.2985,2.24261,1.52536,0.03789,1.50125
0.04692,0.00461,0.00012,0.00464,0.2827,0.00736,0.28439,2.31084,1.50961,0.03929,1.51863
0.0483,0.00448,0.00012,0.00442,0.27487,0.00721,0.27114,2.37908,1.55578,0.04079,1.53467
0.04969,0.00399,0.00012,0.00422,0.24481,0.00709,0.25871,2.44731,1.46624,0.04249,1.54953
0.05107,0.00407,0.00011,0.00403,0.24941,0.00698,0.24705,2.51555,1.57828,0.04417,1.56333
0.05246,0.00387,0.00011,0.00385,0.23705,0.00685,0.23611,2.58378,1.5825,0.04575,1.57623
0.05384,0.00365,0.00011,0.00368,0.22394,0.00674,0.22584,2.65202,1.57499,0.04743,1.58835
0.05523,0.00368,0.00011,0.00353,0.22559,0.00663,0.2162,2.72025,1.66933,0.04903,1.59983
0.05661,0.00339,0.00011,0.00338,0.20774,0.00649,0.20716,2.78848,1.61528,0.05049,1.61077
0.058,0.00334,0.00011,0.00324,0.2049,0.00663,0.19866,2.85672,1.67219,0.05413,1.62124
0.05938,0.00312,0.00011,0.00311,0.19143,0.00677,0.19067,2.92495,1.63773,0.05795,1.63128
0.06077,0.003,0.00011,0.00299,0.1839,0.00683,0.18315,2.99319,1.64755,0.06123,1.6409
0.06215,0.00284,0.00011,0.00287,0.17428,0.00653,0.17606,3.06142,1.63336,0.06117,1.65007
0.06354,0.00293,0.0001,0.00276,0.17934,0.00626,0.16936,3.12965,1.75662,0.06128,1.65886
0.06493,0.00278,0.0001,0.00266,0.17041,0.00622,0.16304,3.19788,1.74267,0.06356,1.66734
0.06631,0.00255,0.0001,0.00256,0.15632,0.00611,0.15707,3.26612,1.66752,0.06523,1.67558
0.0677,0.00256,0.0001,0.00247,0.15706,0.00598,0.15143,3.33435,1.74621,0.0665,1.68362
0.06908,0.00243,0.0001,0.00238,0.14926,0.00587,0.1461,3.40259,1.72806,0.06793,1.69147
0.07047,0.00229,0.00009,0.0023,0.14052,0.00581,0.14105,3.47082,1.69281,0.06995,1.69913
0.07185,0.00227,0.00009,0.00222,0.13901,0.00575,0.13625,3.53905,1.74103,0.07203,1.70656
0.07324,0.00222,0.00009,0.00215,0.13593,0.00571,0.1317,3.60729,1.76879,0.07436,1.71377
0.07462,0.00211,0.00009,0.00208,0.12914,0.00568,0.12738,3.67552,1.74456,0.07673,1.72081
0.07601,0.00204,0.00009,0.00201,0.12503,0.0056,0.12327,3.74375,1.75244,0.07851,1.72772
0.07739,0.00209,0.00009,0.00195,0.12824,0.00577,0.11936,3.81199,1.86349,0.08391,1.73452
0.07878,0.0019,0.0001,0.00189,0.11638,0.00594,0.11565,3.88022,1.75229,0.08944,1.74123
0.08016,0.00164,0.0001,0.00183,0.10037,0.00596,0.11211,3.94846,1.56482,0.09292,1.74784
0.08155,0.00192,0.00009,0.00177,0.118,0.00572,0.10874,4.01669,1.90374,0.09233,1.75432
0.08293,0.0017,0.00009,0.00172,0.10422,0.00551,0.10551,4.08492,1.73904,0.09192,1.76067
0.08432,0.00166,0.00009,0.00167,0.10188,0.00543,0.10244,4.15315,1.75729,0.0936,1.76691
0.08571,0.00162,0.00009,0.00162,0.09929,0.00533,0.0995,4.22139,1.76937,0.09503,1.77308
0.08709,0.00151,0.00009,0.00158,0.09254,0.00521,0.09669,4.28962,1.70288,0.09592,1.77918
0.08848,0.00156,0.00008,0.00153,0.09564,0.00518,0.09401,4.35786,1.81629,0.09842,1.78524
0.08986,0.00157,0.00008,0.00149,0.09599,0.00518,0.09144,4.42609,1.88044,0.10141,1.79125
0.09125,0.00141,0.00008,0.00145,0.0867,0.00513,0.08898,4.49432,1.75135,0.1036,1.7972
0.09263,0.00128,0.00008,0.00141,0.07833,0.00509,0.08662,4.56256,1.63056,0.10606,1.80307
0.09402,0.00112,0.00009,0.00138,0.06893,0.0053,0.08435,4.63079,1.47825,0.11366,1.80889
0.0954,0.00131,0.00009,0.00134,0.08045,0.0054,0.08218,4.69902,1.7764,0.11917,1.81465
0.09679,0.0013,0.00009,0.00131,0.07952,0.00549,0.0801,4.76726,1.80715,0.12484,1.82038
0.09817,0.00124,0.00009,0.00127,0.07626,0.00555,0.0781,4.83549,1.78316,0.12976,1.82607
0.09956,0.00126,0.00009,0.00124,0.07746,0.00554,0.07617,4.90373,1.86257,0.13333,1.83173
0.10094,0.00129,0.00009,0.00121,0.0792,0.00529,0.07432,4.97197,1.9579,0.13073,1.83734
0.10233,0.0011,0.00008,0.00118,0.06745,0.00516,0.07254,5.04019,1.71336,0.13119,1.84288
0.10371,0.00109,0.00008,0.00116,0.06689,0.00509,0.07083,5.1084,1.74543,0.13293,1.84835
0.1051,0.00108,0.00008,0.00113,0.0665,0.00504,0.06918,5.17667,1.78195,0.13498,1.85376
0.10649,0.00099,0.00008,0.0011,0.06052,0.00497,0.06758,5.24489,1.6647,0.13682,1.85911
0.10787,0.00107,0.00008,0.00108,0.06549,0.00494,0.06605,5.31311,1.84877,0.13941,1.86442
0.10926,0.00102,0.00008,0.00105,0.06283,0.00486,0.06456,5.38137,1.81938,0.14061,1.86967
0.11064,0.00101,0.00008,0.00103,0.06186,0.00478,0.06313,5.44959,1.83722,0.14209,1.87485
0.11203,0.00096,0.00008,0.00101,0.05865,0.00479,0.06175,5.51781,1.78566,0.14584,1.87995
0.11341,0.00107,0.00008,0.00099,0.06567,0.00476,0.06041,5.58608,2.04904,0.1484,1.88496
0.1148,0.00107,0.00008,0.00096,0.06561,0.00471,0.05911,5.65429,2.0977,0.15048,1.88989
0.11618,0.00096,0.00008,0.00094,0.05905,0.00469,0.05786,5.72251,1.93356,0.15343,1.89474
0.11757,0.00092,0.00008,0.00092,0.05632,0.00463,0.05665,5.79078,1.88875,0.15515,1.89952
0.11895,0.00099,0.00008,0.0009,0.06058,0.00463,0.05547,5.859,2.07959,0.15898,1.90421
0.12034,0.00089,0.00008,0.00089,0.05483,0.0046,0.05433,5.92722,1.9262,0.16165,1.90882
0.12172,0.00097,0.00007,0.00087,0.0596,0.00457,0.05323,5.99548,2.14237,0.16415,1.91334
0.12311,0.00082,0.00007,0.00085,0.05008,0.0045,0.05216,6.0637,1.84149,0.16549,1.91776
0.12449,0.00079,0.00007,0.00083,0.04834,0.00443,0.05112,6.13192,1.81779,0.1667,1.92208
0.12588,0.00077,0.00007,0.00082,0.04746,0.00441,0.05011,6.20019,1.82443,0.16937,1.92632
0.12727,0.00097,0.00007,0.0008,0.05919,0.00442,0.04913,6.2684,2.32575,0.17353,1.93048
0.12865,0.0008,0.00007,0.00079,0.04924,0.00438,0.04818,6.33662,1.97714,0.17599,1.93457
0.13004,0.00079,0.00007,0.00077,0.04832,0.00437,0.04726,6.40489,1.98222,0.17927,1.9386
0.13142,0.00077,0.00007,0.00076,0.04741,0.00433,0.04636,6.47311,1.98664,0.18132,1.94257
0.13281,0.00069,0.00007,0.00074,0.04239,0.00428,0.04549,6.54132,1.814,0.18319,1.94647
0.13419,0.00091,0.00007,0.00073,0.05564,0.00426,0.04464,6.60959,2.4306,0.18627,1.95033
0.13558,0.00087,0.00007,0.00071,0.05343,0.00426,0.04382,6.67781,2.38267,0.19011,1.95413
0.13696,0.00069,0.00007,0.0007,0.04224,0.00424,0.04302,6.74603,1.92215,0.19274,1.9579
0.13835,0.00064,0.00007,0.00069,0.03945,0.00421,0.04225,6.81424,1.83188,0.19531,1.96162
0.13973,0.00063,0.00007,0.00068,0.03892,0.00418,0.04149,6.88251,1.84342,0.19782,1.96531
0.14112,0.00071,0.00007,0.00066,0.04357,0.00414,0.04075,6.95073,2.10481,0.20006,1.96897
0.1425,0.00065,0.00007,0.00065,0.03972,0.00413,0.04004,7.01895,1.95698,0.20327,1.97259
0.14389,0.00071,0.00007,0.00064,0.04351,0.00412,0.03934,7.08721,2.1852,0.20673,1.97618
0.14527,0.00061,0.00007,0.00063,0.03711,0.00408,0.03867,7.15543,1.9001,0.20874,1.97974
0.14666,0.00058,0.00007,0.00062,0.03567,0.00406,0.03801,7.22365,1.86121,0.21168,1.98327
0.14805,0.00069,0.00007,0.00061,0.04222,0.00403,0.03737,7.29192,2.24509,0.21406,1.98677
0.14943,0.0007,0.00007,0.0006,0.04285,0.00401,0.03674,7.36013,2.32134,0.21716,1.99025
0.15082,0.0006,0.00007,0.00059,0.03674,0.00401,0.03613,7.42835,2.02708,0.22115,1.99371
0.1522,0.00057,0.00007,0.00058,0.03505,0.00411,0.03554,7.49662,1.96962,0.23073,1.99714
0.15359,0.00054,0.00007,0.00057,0.03293,0.0042,0.03496,7.56484,1.88455,0.24045,2.00054
0.15497,0.0006,0.00007,0.00056,0.03693,0.00425,0.03439,7.63305,2.15162,0.24772,2.00392
0.15636,0.00061,0.00007,0.00055,0.03727,0.00429,0.03384,7.70132,2.21076,0.25431,2.00727
0.15774,0.00052,0.00007,0.00054,0.03186,0.00436,0.03331,7.76954,1.9231,0.26334,2.01059
0.15913,0.00058,0.00007,0.00053,0.03577,0.00424,0.03278,7.83776,2.1975,0.26057,2.01389
0.16051,0.00056,0.00007,0.00053,0.0342,0.00414,0.03227,7.90602,2.13765,0.25887,2.01717
0.1619,0.00045,0.00007,0.00052,0.0278,0.00409,0.03177,7.97424,1.76757,0.26007,2.02042
0.16328,0.00047,0.00007,0.00051,0.0291,0.004,0.03129,8.04246,1.88202,0.25889,2.02363
0.16467,0.00054,0.00006,0.0005,0.03322,0.00398,0.03081,8.11073,2.18509,0.2619,2.02682
0.16605,0.00054,0.00006,0.00049,0.0332,0.00398,0.03035,8.17894,2.2208,0.26638,2.02999
0.16744,0.00041,0.00006,0.00049,0.02532,0.00395,0.02989,8.24716,1.72202,0.26895,2.03312
0.16883,0.00048,0.00006,0.00048,0.02965,0.00393,0.02945,8.31543,2.05027,0.27173,2.03623
0.17021,0.00039,0.00006,0.00047,0.02397,0.0039,0.02901,8.38365,1.68475,0.27434,2.03932
0.1716,0.00048,0.00006,0.00047,0.0294,0.00386,0.02859,8.45186,2.10019,0.2755,2.04238
0.17298,0.00052,0.00006,0.00046,0.03177,0.00387,0.02818,8.52013,2.30616,0.28058,2.04542
0.17437,0.00043,0.00006,0.00045,0.02636,0.00385,0.02777,8.58835,1.94395,0.28389,2.04842
0.17575,0.00053,0.00006,0.00045,0.03239,0.00384,0.02738,8.65657,2.4275,0.28764,2.0514
0.17714,0.0003,0.00006,0.00044,0.01857,0.00383,0.02699,8.72479,1.41321,0.29155,2.05435
0.17852,0.00041,0.00006,0.00043,0.02494,0.00382,0.02661,8.79305,1.92846,0.29542,2.05728
0.17991,0.00049,0.00006,0.00043,0.0299,0.00381,0.02624,8.86127,2.3479,0.29936,2.06017
0.18129,0.0005,0.00006,0.00042,0.03051,0.00381,0.02587,8.92949,2.43252,0.30374,2.06303
0.18268,0.00041,0.00006,0.00042,0.0253,0.00378,0.02552,8.99776,2.04843,0.30605,2.06586
0.18406,0.00047,0.00006,0.00041,0.0287,0.00376,0.02517,9.06597,2.3589,0.30925,2.06865
0.18545,0.00036,0.00006,0.0004,0.02205,0.00373,0.02483,9.13419,1.84011,0.31153,2.07141
0.18683,0.00041,0.00006,0.0004,0.02519,0.00372,0.02449,9.20246,2.13322,0.31478,2.07413
0.18822,0.00036,0.00006,0.00039,0.02193,0.00371,0.02416,9.27068,1.88489,0.31914,2.07682
0.1896,0.0005,0.00006,0.00039,0.03078,0.00372,0.02384,9.33889,2.68418,0.32442,2.07948
0.19099,0.00037,0.00006,0.00038,0.02295,0.00369,0.02353,9.40716,2.03092,0.32642,2.0821
0.19238,0.00038,0.00006,0.00038,0.02321,0.00369,0.02322,9.47538,2.08415,0.33102,2.08469
0.19376,0.00043,0.00006,0.00037,0.0265,0.00367,0.02292,9.5436,2.41333,0.3341,2.08724
0.19515,0.00031,0.00006,0.00037,0.01905,0.00365,0.02262,9.61186,1.75965,0.33759,2.08976
0.19653,0.00042,0.00006,0.00036,0.02591,0.00366,0.02233,9.68008,2.42813,0.34259,2.09225
0.19792,0.00042,0.00006,0.00036,0.02573,0.00365,0.02204,9.7483,2.4453,0.34711,2.09471
0.1993,0.00032,0.00006,0.00035,0.01979,0.00365,0.02176,9.81657,1.90722,0.35195,2.09713
0.20069,0.00037,0.00006,0.00035,0.02293,0.00366,0.02149,9.88478,2.24051,0.35719,2.09953
0.20207,0.00035,0.00006,0.00035,0.02157,0.00365,0.02122,9.953,2.13677,0.36167,2.10189
0.20346,0.00039,0.00006,0.00034,0.02399,0.00364,0.02095,10.02127,2.40903,0.36562,2.10422
0.20484,0.00037,0.00006,0.00034,0.02245,0.00362,0.02069,10.08949,2.28523,0.36879,2.10652
0.20623,0.00029,0.00006,0.00033,0.01796,0.00359,0.02044,10.1577,1.85285,0.37078,2.10879
0.20761,0.00033,0.00006,0.00033,0.02002,0.00359,0.02019,10.22597,2.09323,0.37544,2.11104
0.209,0.00039,0.00006,0.00033,0.02401,0.00356,0.01994,10.29419,2.54426,0.37754,2.11326
0.21038,0.0003,0.00006,0.00032,0.01849,0.00359,0.0197,10.36241,1.98513,0.38551,2.11546
0.21177,0.00026,0.00006,0.00032,0.01606,0.00372,0.01946,10.43067,1.74776,0.40428,2.11764
0.21315,0.00037,0.00006,0.00031,0.02261,0.00378,0.01923,10.49889,2.49185,0.41658,2.11981
0.21454,0.00034,0.00006,0.00031,0.02088,0.00382,0.019,10.56711,2.3314,0.42665,2.12195
0.21593,0.00046,0.00006,0.00031,0.02807,0.00392,0.01878,10.63533,3.17467,0.44284,2.12408
0.21731,0.00043,0.00006,0.0003,0.02631,0.00386,0.01856,10.70359,3.01478,0.44203,2.1262
0.2187,0.00021,0.00006,0.0003,0.01275,0.00375,0.01834,10.77181,1.47995,0.43554,2.1283
0.22008,0.00031,0.00006,0.0003,0.01918,0.00371,0.01813,10.84003,2.25385,0.43599,2.13039
0.22147,0.00048,0.00006,0.00029,0.02921,0.00371,0.01792,10.9083,3.47626,0.44103,2.13246
0.22285,0.00027,0.00006,0.00029,0.01671,0.00367,0.01772,10.97651,2.01385,0.44182,2.13451
0.22424,0.00031,0.00006,0.00029,0.01927,0.00363,0.01751,11.04473,2.35039,0.44242,2.13655
0.22562,0.00033,0.00006,0.00028,0.01993,0.00361,0.01732,11.113,2.46102,0.44561,2.13857
0.22701,0.0003,0.00006,0.00028,0.01837,0.00359,0.01712,11.18122,2.297,0.44853,2.14057
0.22839,0.00031,0.00006,0.00028,0.01901,0.00359,0.01693,11.24943,2.40518,0.45404,2.14256
0.22978,0.00031,0.00006,0.00027,0.01892,0.00356,0.01674,11.3177,2.42394,0.4563,2.14452
0.23116,0.00026,0.00006,0.00027,0.01574,0.00354,0.01656,11.38592,2.04014,0.45951,2.14647
0.23255,0.00037,0.00006,0.00027,0.02291,0.00353,0.01638,11.45414,3.00545,0.46264,2.1484
0.23394,0.00022,0.00006,0.00026,0.01375,0.00351,0.0162,11.5224,1.82524,0.46545,2.15031
0.23532,0.00023,0.00006,0.00026,0.01411,0.00349,0.01602,11.59062,1.895,0.46938,2.15219
0.2367,0.00029,0.00006,0.00026,0.01754,0.00348,0.01585,11.65884,2.38352,0.4731,2.15406
0.23809,0.00017,0.00006,0.00026,0.01031,0.00347,0.01568,11.72711,1.41774,0.47726,2.1559
0.23948,0.00039,0.00006,0.00025,0.02382,0.00349,0.01551,11.79532,3.31351,0.48514,2.15771
0.24086,0.00036,0.00006,0.00025,0.02218,0.00346,0.01534,11.86354,3.12174,0.48657,2.15951
0.24225,0.0002,0.00006,0.00025,0.01232,0.00343,0.01518,11.93181,1.7537,0.48841,2.16127
0.24363,0.00023,0.00006,0.00024,0.01425,0.00342,0.01502,12.00003,2.05181,0.49306,2.163
0.24502,0.00026,0.00006,0.00024,0.01589,0.00341,0.01486,12.06825,2.31442,0.49641,2.16471
0.2464,0.00033,0.00006,0.00024,0.02046,0.00341,0.01471,12.13651,3.01296,0.50166,2.1664
0.24779,0.00026,0.00006,0.00024,0.01605,0.00338,0.01456,12.20473,2.39012,0.50339,2.16807
0.24917,0.00024,0.00005,0.00023,0.01471,0.00335,0.0144,12.27295,2.21609,0.50519,2.16974
0.25056,0.00029,0.00005,0.00023,0.01756,0.00336,0.01426,12.34122,2.67387,0.51175,2.17142
0.25194,0.00029,0.00005,0.00023,0.01766,0.00336,0.01411,12.40943,2.71952,0.51678,2.17313
0.25333,0.00019,0.00005,0.00023,0.0114,0.00335,0.01397,12.47765,1.77429,0.52108,2.17486
0.25471,0.00032,0.00005,0.00023,0.01941,0.00335,0.01383,12.54587,3.05512,0.52786,2.17664
0.2561,0.00018,0.00005,0.00022,0.01082,0.00334,0.01369,12.61414,1.72107,0.53131,2.17846
0.25749,0.00019,0.00005,0.00022,0.01182,0.00333,0.01356,12.68235,1.90047,0.53588,2.18033
0.25887,0.00013,0.00005,0.00022,0.00804,0.00332,0.01342,12.75057,1.30765,0.5396,2.18225
0.26026,0.00021,0.00005,0.00022,0.01257,0.0033,0.01329,12.81884,2.06568,0.54193,2.18421
0.26164,0.00025,0.00005,0.00021,0.01508,0.0033,0.01316,12.88706,2.50364,0.54768,2.18622
0.26303,0.00024,0.00005,0.00021,0.01496,0.00327,0.01304,12.95527,2.51084,0.54887,2.18827
0.26441,0.00025,0.00005,0.00021,0.01554,0.00326,0.01291,13.02354,2.63655,0.55265,2.19037
0.2658,0.00029,0.00005,0.00021,0.01797,0.00325,0.01279,13.09176,3.07957,0.55712,2.19251
0.26718,0.00023,0.00005,0.00021,0.01407,0.00324,0.01267,13.15998,2.43739,0.56158,2.19469
0.26857,0.00019,0.00005,0.0002,0.01193,0.00325,0.01255,13.22824,2.08808,0.5679,2.19693
0.26995,0.00021,0.00005,0.0002,0.01299,0.00336,0.01244,13.29646,2.29657,0.59434,2.19923
0.27134,0.00021,0.00006,0.0002,0.01263,0.0034,0.01233,13.36468,2.25674,0.60756,2.20159
0.27272,0.00021,0.00006,0.0002,0.01304,0.00346,0.01221,13.43295,2.35271,0.62465,2.20401
0.27411,0.00027,0.00006,0.0002,0.01634,0.00352,0.0121,13.50116,2.97887,0.64076,2.20651
0.27549,0.00013,0.00006,0.0002,0.00773,0.00354,0.012,13.56938,1.42355,0.65202,2.20908
0.27688,0.00021,0.00006,0.00019,0.01307,0.00344,0.01189,13.63765,2.43119,0.63932,2.21173
0.27826,0.00024,0.00006,0.00019,0.01448,0.00339,0.01179,13.70587,2.71925,0.636,2.21447
0.27965,0.0002,0.00005,0.00019,0.01208,0.00334,0.01169,13.77408,2.29103,0.63355,2.21731
0.28104,0.00024,0.00005,0.00019,0.01446,0.00332,0.01159,13.84235,2.77097,0.63532,2.22025
0.28242,0.00029,0.00005,0.00019,0.01774,0.00332,0.01149,13.91057,3.43349,0.64217,2.22331
0.28381,0.00029,0.00005,0.00019,0.01795,0.0033,0.01139,13.97879,3.50792,0.64545,2.22649
0.28519,0.00019,0.00005,0.00018,0.01195,0.00328,0.0113,14.04705,2.35799,0.64652,2.2298
0.28658,0.00017,0.00005,0.00018,0.0106,0.00325,0.01121,14.11527,2.11198,0.64736,2.23325
0.28796,0.00025,0.00005,0.00018,0.01548,0.00324,0.01112,14.18349,3.11361,0.65273,2.23685
0.28935,0.00026,0.00005,0.00018,0.01603,0.00323,0.01103,14.25176,3.25595,0.65664,2.24062
0.29073,0.00031,0.00005,0.00018,0.01903,0.00322,0.01095,14.31997,3.90166,0.66075,2.24456
0.29212,0.00021,0.00005,0.00018,0.01307,0.00322,0.01086,14.38819,2.7055,0.66756,2.24869
0.2935,0.00009,0.00005,0.00018,0.0055,0.00321,0.01078,14.45641,1.14994,0.67133,2.25301
0.29489,0.00033,0.00005,0.00017,0.01994,0.00322,0.0107,14.52468,4.20618,0.67829,2.25755
0.29627,0.00025,0.00005,0.00017,0.01556,0.00321,0.01062,14.59289,3.31445,0.68374,2.26231
0.29766,0.0002,0.00005,0.00017,0.01253,0.00319,0.01055,14.66111,2.694,0.68658,2.2673
0.29905,0.00016,0.00005,0.00017,0.00995,0.00319,0.01047,14.72938,2.15936,0.69122,2.27253
0.30043,0.00024,0.00005,0.00017,0.01494,0.00318,0.0104,14.7976,3.27177,0.69565,2.278
0.30181,0.00025,0.00005,0.00017,0.01523,0.00316,0.01033,14.86582,3.36625,0.69814,2.28372
0.3032,0.00019,0.00005,0.00017,0.01178,0.00315,0.01027,14.93408,2.62693,0.70234,2.28971
0.30459,0.00015,0.00005,0.00017,0.00946,0.00314,0.0102,15.0023,2.12815,0.70701,2.29596
0.30597,0.00022,0.00005,0.00017,0.01376,0.00315,0.01014,15.07052,3.12444,0.71488,2.30249
0.30736,0.00027,0.00005,0.00016,0.01628,0.00315,0.01008,15.13879,3.73078,0.72207,2.30931
0.30874,0.00022,0.00005,0.00016,0.01322,0.00314,0.01002,15.207,3.05639,0.72666,2.31642
0.31013,0.00019,0.00005,0.00016,0.0114,0.00313,0.00996,15.27522,2.65914,0.73147,2.32384
0.31151,0.00024,0.00005,0.00016,0.01457,0.00313,0.0099,15.34349,3.43108,0.7378,2.33158
0.3129,0.00024,0.00005,0.00016,0.01459,0.00314,0.00985,15.41171,3.46454,0.74593,2.33963
0.31428,0.00019,0.00005,0.00016,0.01141,0.00313,0.0098,15.47992,2.7344,0.74896,2.34803
0.31567,0.00012,0.00005,0.00016,0.0076,0.00312,0.00975,15.54819,1.83769,0.75478,2.35677
0.31705,0.00017,0.00005,0.00016,0.01058,0.0031,0.0097,15.61641,2.58126,0.75697,2.36587
0.31844,0.00017,0.00005,0.00016,0.01028,0.0031,0.00966,15.68463,2.52922,0.76344,2.37533
0.31983,0.00017,0.00005,0.00016,0.01039,0.00311,0.00961,15.75289,2.57742,0.77191,2.38518
0.32121,0.00023,0.00005,0.00016,0.01417,0.0031,0.00957,15.82111,3.54652,0.77672,2.39543
0.3226,0.00018,0.00005,0.00016,0.0109,0.00309,0.00953,15.88933,2.75145,0.78079,2.40608
0.32398,0.0001,0.00005,0.00015,0.00611,0.00308,0.00949,15.9576,1.55675,0.78348,2.41716
0.32537,0.00006,0.00005,0.00015,0.00362,0.00306,0.00946,16.02581,0.92966,0.78549,2.42867
0.32675,0.00023,0.00005,0.00015,0.01387,0.00307,0.00942,16.09403,3.59332,0.79626,2.44063
0.32814,0.00023,0.00005,0.00015,0.01388,0.00314,0.00939,16.1623,3.62543,0.82045,2.45307
0.32952,0.00009,0.00005,0.00015,0.00579,0.00322,0.00936,16.23052,1.52496,0.84784,2.46597
0.33091,0.00007,0.00005,0.00015,0.00399,0.00326,0.00933,16.29873,1.0604,0.8651,2.47936
0.33229,0.00019,0.00005,0.00015,0.01172,0.0033,0.00931,16.367,3.13921,0.88332,2.49327
0.33368,0.00018,0.00005,0.00015,0.01114,0.00333,0.00928,16.43522,3.00904,0.89952,2.50769
0.33506,0.00016,0.00005,0.00015,0.00962,0.00327,0.00926,16.50344,2.6202,0.89023,2.52264
0.33645,0.00022,0.00005,0.00015,0.01377,0.00321,0.00924,16.57165,3.78023,0.88196,2.53815
0.33783,0.00021,0.00005,0.00015,0.01316,0.00317,0.00922,16.63992,3.64268,0.87684,2.55424
0.33922,0.00016,0.00005,0.00015,0.00997,0.00314,0.00921,16.70814,2.78439,0.87531,2.5709
0.3406,0.00019,0.00005,0.00015,0.01189,0.00312,0.0092,16.77636,3.3453,0.87916,2.58818
0.34199,0.00019,0.00005,0.00015,0.01138,0.00312,0.00918,16.84462,3.22952,0.88541,2.6061
0.34337,0.00022,0.00005,0.00015,0.01333,0.00311,0.00918,16.91284,3.81366,0.89042,2.62466
0.34476,0.00014,0.00005,0.00015,0.00849,0.00309,0.00917,16.98106,2.44801,0.89128,2.64389
0.34615,0.00024,0.00005,0.00015,0.01458,0.00308,0.00916,17.04933,4.23718,0.89606,2.66383
0.34753,0.00018,0.00005,0.00015,0.01129,0.00307,0.00916,17.11754,3.30708,0.89841,2.68447
0.34892,0.00015,0.00005,0.00015,0.00898,0.00305,0.00916,17.18576,2.65105,0.90087,2.70583
0.3503,0.00012,0.00005,0.00015,0.0073,0.00306,0.00916,17.25403,2.172,0.90964,2.72794
0.35169,0.00013,0.00005,0.00015,0.00796,0.00305,0.00917,17.32225,2.38949,0.91416,2.75079
0.35307,0.0002,0.00005,0.00015,0.01233,0.00304,0.00917,17.39046,3.72825,0.92043,2.7744
0.35446,0.00014,0.00005,0.00015,0.00879,0.00304,0.00918,17.45873,2.67998,0.92698,2.7988
0.35584,0.0002,0.00005,0.00015,0.01228,0.00302,0.00919,17.52695,3.7733,0.92903,2.82397
0.35723,0.0002,0.00005,0.00015,0.01219,0.00302,0.00921,17.59517,3.77358,0.9364,2.84995
0.35861,0.00017,0.00005,0.00015,0.01021,0.00302,0.00922,17.66343,3.18639,0.94139,2.87677
0.36,0.00021,0.00005,0.00015,0.01309,0.00301,0.00924,17.73165,4.11518,0.94517,2.90442
0.36138,0.00017,0.00005,0.00015,0.01039,0.00301,0.00926,17.79987,3.29115,0.95244,2.93294
0.36277,0.00022,0.00005,0.00015,0.01325,0.003,0.00928,17.86814,4.23119,0.9563,2.96236
0.36416,0.00022,0.00005,0.00015,0.01347,0.003,0.0093,17.93636,4.3344,0.96659,2.99267
0.36554,0.00009,0.00005,0.00015,0.00556,0.00299,0.00933,18.00457,1.80078,0.9685,3.02391
0.36693,0.00017,0.00005,0.00015,0.01035,0.00299,0.00936,18.07284,3.38199,0.9757,3.05612
0.36831,0.0001,0.00005,0.00015,0.00603,0.00298,0.00939,18.14106,1.98516,0.9807,3.08927
0.3697,0.0002,0.00005,0.00015,0.01228,0.00297,0.00942,18.20928,4.07157,0.98473,3.12342
0.37108,0.00003,0.00005,0.00015,0.00168,0.00296,0.00945,18.27754,0.56068,0.98981,3.1586
0.37247,0.00007,0.00005,0.00015,0.00447,0.00297,0.00949,18.34576,1.50404,1.00098,3.19478
0.37385,0.00011,0.00005,0.00016,0.00687,0.00298,0.00953,18.41398,2.32926,1.01183,3.232
0.37524,0.00017,0.00005,0.00016,0.0103,0.00298,0.00957,18.4822,3.51834,1.01909,3.27029
0.37662,0.00016,0.00005,0.00016,0.00978,0.00299,0.00962,18.55046,3.36389,1.02724,3.30969
0.37801,0.00012,0.00005,0.00016,0.0071,0.00299,0.00966,18.61868,2.46015,1.03493,3.35017
0.37939,0.00016,0.00005,0.00016,0.0095,0.00299,0.00971,18.6869,3.31909,1.04499,3.39177
0.38078,0.00022,0.00005,0.00016,0.0132,0.003,0.00976,18.75517,4.64401,1.0555,3.43453
0.38216,0.00018,0.00005,0.00016,0.01118,0.003,0.00982,18.82338,3.96274,1.0614,3.47843
0.38355,0.00015,0.00005,0.00016,0.0092,0.00299,0.00987,18.8916,3.28403,1.06622,3.5235
0.38494,0.00011,0.00005,0.00016,0.00648,0.00299,0.00993,18.95987,2.33094,1.07361,3.5698
0.38632,0.0001,0.00005,0.00016,0.00637,0.00297,0.00999,19.02809,2.3077,1.07654,3.61728
0.38771,0.00016,0.00005,0.00016,0.00976,0.00313,0.01005,19.0963,3.55807,1.14011,3.66599
0.38909,0.00013,0.00005,0.00017,0.00799,0.0032,0.01012,19.16457,2.93322,1.17568,3.71599
0.39048,0.00008,0.00005,0.00017,0.00498,0.00327,0.01018,19.23279,1.84225,1.21046,3.76722
0.39186,0.00018,0.00005,0.00017,0.01124,0.00331,0.01025,19.30101,4.18637,1.23471,3.81974
0.39325,0.00017,0.00005,0.00017,0.01019,0.00331,0.01032,19.36927,3.82442,1.24264,3.87361
0.39463,0.00011,0.00005,0.00017,0.00688,0.00319,0.0104,19.43749,2.59859,1.2043,3.92877
0.39602,0.0002,0.00005,0.00017,0.01246,0.00316,0.01047,19.50571,4.74174,1.20045,3.98527
0.3974,0.00027,0.00005,0.00017,0.01682,0.00314,0.01055,19.57398,6.44294,1.20412,4.04318
0.39879,0.00013,0.00005,0.00017,0.00827,0.00314,0.01063,19.64219,3.19217,1.21004,4.10244
0.40017,0.00007,0.00005,0.00017,0.00455,0.00313,0.01072,19.71041,1.76859,1.21694,4.1631
0.40156,0.00012,0.00005,0.00018,0.0071,0.00313,0.0108,19.77868,2.77798,1.22569,4.22523
0.40294,0.00015,0.00005,0.00018,0.00889,0.00313,0.01089,19.8469,3.50203,1.23265,4.28876
0.40433,0.00016,0.00005,0.00018,0.00985,0.00313,0.01098,19.91511,3.9062,1.24048,4.35376
0.40572,0.00013,0.00005,0.00018,0.00799,0.00312,0.01107,19.98338,3.19081,1.24509,4.42029
0.4071,0.00018,0.00005,0.00018,0.01091,0.00313,0.01116,20.0516,4.38591,1.25801,4.48828
0.40849,0.00023,0.00005,0.00018,0.01403,0.00313,0.01126,20.11982,5.67964,1.26608,4.55779
0.40987,0.00022,0.00005,0.00019,0.01374,0.00312,0.01136,20.18808,5.60174,1.2711,4.62891
0.41126,0.00014,0.00005,0.00019,0.00888,0.00313,0.01146,20.2563,3.64197,1.28251,4.70153
0.41264,0.0001,0.00005,0.00019,0.00634,0.00313,0.01156,20.32452,2.61974,1.29362,4.77575
0.41403,0.00015,0.00005,0.00019,0.00896,0.00312,0.01167,20.39274,3.7241,1.29643,4.85158
0.41541,0.0002,0.00005,0.00019,0.01221,0.00312,0.01177,20.461,5.11261,1.30682,4.92909
0.4168,0.00014,0.00005,0.00019,0.00868,0.00312,0.01188,20.52922,3.65843,1.31462,5.00819
0.41818,0.00022,0.00005,0.0002,0.01322,0.00313,0.012,20.59744,5.60715,1.32772,5.08897
0.41957,0.0001,0.00005,0.0002,0.00589,0.00313,0.01211,20.66571,2.5147,1.33716,5.1715
0.42095,0.00014,0.00005,0.0002,0.00882,0.00312,0.01223,20.73393,3.7937,1.34245,5.25569
0.42234,0.0002,0.00005,0.0002,0.01222,0.00312,0.01234,20.80214,5.28927,1.35166,5.34161
0.42372,0.00007,0.00005,0.0002,0.00449,0.00312,0.01246,20.87041,1.95395,1.35812,5.42935
0.42511,0.00003,0.00005,0.00021,0.00195,0.00312,0.01259,20.93863,0.85288,1.36665,5.5188
0.42649,0.00015,0.00005,0.00021,0.00923,0.00313,0.01271,21.00685,4.07489,1.38177,5.61006
0.42788,0.00015,0.00005,0.00021,0.00906,0.00313,0.01284,21.07511,4.02569,1.39153,5.70321
0.42927,0.00015,0.00005,0.00021,0.00897,0.00311,0.01297,21.14333,4.01038,1.39131,5.79814
0.43065,0.00004,0.00005,0.00021,0.00225,0.00313,0.0131,21.21155,1.01298,1.40924,5.89493
0.43204,0.00002,0.00005,0.00022,0.00153,0.00313,0.01324,21.27982,0.69071,1.41774,5.99368
0.43342,0.00012,0.00005,0.00022,0.00708,0.00312,0.01337,21.34803,3.22575,1.42003,6.09427
0.43481,0.00003,0.00005,0.00022,0.00167,0.00311,0.01351,21.41625,0.76521,1.42782,6.1968
0.43619,0.00012,0.00005,0.00022,0.00764,0.00313,0.01365,21.48452,3.52631,1.44267,6.30135
0.43758,0.00012,0.00005,0.00022,0.0072,0.00312,0.01379,21.55274,3.34489,1.45113,6.40781
0.43896,0.00012,0.00005,0.00023,0.00757,0.00312,0.01394,21.62095,3.54089,1.45748,6.51628
0.44035,0.00014,0.00005,0.00023,0.00842,0.00312,0.01409,21.68922,3.96229,1.46699,6.62684
0.44173,0.00012,0.00005,0.00023,0.0075,0.00313,0.01424,21.75744,3.55022,1.47987,6.73937
0.44312,0.00011,0.00005,0.00023,0.00667,0.00312,0.01439,21.82566,3.17608,1.48489,6.85398
0.4445,0.00022,0.00005,0.00024,0.01367,0.00312,0.01454,21.89392,6.55042,1.49322,6.97076
0.44589,0.00012,0.00005,0.00024,0.00763,0.00322,0.0147,21.96214,3.67966,1.55112,7.08957
0.44727,0.00012,0.00005,0.00024,0.00756,0.0033,0.01486,22.03036,3.66678,1.60376,7.21052
0.44866,0.00018,0.00006,0.00024,0.01073,0.00338,0.01502,22.09863,5.2408,1.65151,7.33373
0.45005,0.00008,0.00006,0.00025,0.00478,0.00345,0.01518,22.16684,2.3479,1.69765,7.45903
0.45143,0.00016,0.00006,0.00025,0.0097,0.00352,0.01535,22.23506,4.79686,1.73793,7.58654
0.45282,0.00017,0.00006,0.00025,0.01014,0.00338,0.01551,22.30328,5.04202,1.67987,7.71629
0.4542,0.00012,0.00005,0.00026,0.00733,0.00333,0.01568,22.37155,3.66808,1.6691,7.84839
0.45559,0.0002,0.00005,0.00026,0.01208,0.00329,0.01585,22.43976,6.08386,1.65741,7.98267
0.45697,0.00012,0.00005,0.00026,0.00741,0.00329,0.01603,22.50798,3.75503,1.66662,8.11927
0.45836,0.0002,0.00005,0.00026,0.01209,0.00327,0.0162,22.57625,6.16086,1.66758,8.25829
0.45974,0.00022,0.00005,0.00027,0.01336,0.00327,0.01638,22.64447,6.85224,1.67815,8.39957
0.46113,0.00019,0.00005,0.00027,0.01175,0.00327,0.01656,22.71268,6.06271,1.68663,8.54322
0.46251,0.0001,0.00005,0.00027,0.00643,0.00325,0.01674,22.78095,3.33761,1.68588,8.68938
0.4639,0.00015,0.00005,0.00028,0.00929,0.00326,0.01693,22.84917,4.85158,1.70198,8.83787
0.46528,0.00013,0.00005,0.00028,0.00814,0.00326,0.01711,22.91739,4.27265,1.71043,8.98881
0.46667,0.00012,0.00005,0.00028,0.00708,0.00326,0.0173,22.98565,3.74314,1.72019,9.14234
0.46805,0.0001,0.00005,0.00029,0.00641,0.00324,0.01749,23.05387,3.40592,1.7232,9.29826
0.46944,0.00006,0.00005,0.00029,0.00363,0.00323,0.01769,23.12209,1.94326,1.72626,9.4567
0.47082,0.00012,0.00005,0.00029,0.00745,0.00322,0.01788,23.19036,4.00523,1.73301,9.61781
0.47221,0.00005,0.00005,0.00029,0.00327,0.00324,0.01808,23.25857,1.77138,1.75018,9.78139
0.47359,0.00011,0.00005,0.0003,0.00671,0.00324,0.01828,23.32679,3.65296,1.76213,9.94756
0.47498,0.00017,0.00005,0.0003,0.01056,0.00324,0.01848,23.39506,5.77868,1.77446,10.11649
0.47637,0.00018,0.00005,0.0003,0.01129,0.00323,0.01869,23.46328,6.21387,1.78045,10.28795
0.47775,0.00005,0.00005,0.00031,0.00305,0.00322,0.01889,23.5315,1.68738,1.78481,10.46209
0.47914,0.00011,0.00005,0.00031,0.00664,0.00324,0.0191,23.59976,3.69723,1.80177,10.63906
0.48052,0.0001,0.00005,0.00032,0.00583,0.00322,0.01931,23.66798,3.26325,1.80498,10.81863
0.48191,0.0001,0.00005,0.00032,0.00623,0.00321,0.01953,23.7362,3.51208,1.81115,11.00096
0.48329,0.00011,0.00005,0.00032,0.00675,0.0032,0.01974,23.80446,3.82743,1.81381,11.1862
0.48468,0.00019,0.00005,0.00033,0.01136,0.0032,0.01996,23.87268,6.47454,1.82355,11.37412
0.48606,0.00012,0.00005,0.00033,0.00724,0.00319,0.02018,23.9409,4.1497,1.83063,11.56487
0.48745,0.00003,0.00005,0.00033,0.0019,0.00318,0.0204,24.00917,1.09709,1.83104,11.75863
0.48883,0.0002,0.00005,0.00034,0.012,0.00321,0.02062,24.07739,6.95817,1.85807,11.95513
0.49022,0.00016,0.00005,0.00034,0.00955,0.0032,0.02085,24.1456,5.56997,1.86641,12.15454
0.4916,0.00009,0.00005,0.00034,0.00522,0.0032,0.02108,24.21382,3.06042,1.8791,12.3569
0.49299,0.0001,0.00005,0.00035,0.00611,0.00321,0.02131,24.28209,3.60048,1.89413,12.56237
0.49438,0.00015,0.00005,0.00035,0.00937,0.0032,0.02154,24.35031,5.55447,1.89875,12.77068
0.49576,0.00016,0.00005,0.00036,0.00956,0.0032,0.02177,24.41852,5.69961,1.90993,12.98201
0.49715,0.00025,0.00005,0.00036,0.0151,0.00321,0.02201,24.48679,9.05192,1.92578,13.19655
0.49853,0.00005,0.00005,0.00036,0.00283,0.0032,0.02225,24.55501,1.7076,1.92736,13.41401
0.49992,0.00006,0.00005,0.00037,0.00364,0.0032,0.02249,24.62323,2.20442,1.94045,13.63457
0.5013,0.00012,0.00005,0.00037,0.00751,0.00322,0.02273,24.69149,4.58095,1.96282,13.85841
0.50269,0.0002,0.00005,0.00037,0.0123,0.00322,0.02298,24.75971,7.54261,1.97391,14.08526
0.50407,0.00011,0.00005,0.00038,0.00655,0.00325,0.02322,24.82793,4.04037,2.00485,14.31528
0.50546,0.00007,0.00006,0.00038,0.00405,0.00341,0.02347,24.8962,2.50834,2.11415,14.54869
0.50684,0.00024,0.00006,0.00039,0.01446,0.00351,0.02372,24.96441,9.00937,2.1873,14.78517
0.50823,0.00013,0.00006,0.00039,0.00798,0.00357,0.02398,25.03263,5.00319,2.23839,15.02491
0.50961,0.00011,0.00006,0.0004,0.00656,0.00362,0.02423,25.1009,4.13456,2.28202,15.26812
0.511,0.00008,0.00006,0.0004,0.00471,0.00355,0.02449,25.16912,2.98451,2.24879,15.51449
0.51238,0.00013,0.00006,0.0004,0.0077,0.00345,0.02475,25.23733,4.90636,2.19604,15.7642
0.51377,0.00017,0.00006,0.00041,0.01028,0.00339,0.02501,25.3056,6.5857,2.17152,16.01747
0.51516,0.00009,0.00006,0.00041,0.00578,0.00339,0.02528,25.37382,3.71942,2.18405,16.27396
0.51654,0.00016,0.00005,0.00042,0.00999,0.00337,0.02554,25.44204,6.46365,2.18149,16.53389
0.51793,0.0002,0.00006,0.00042,0.01229,0.00337,0.02581,25.5103,7.99805,2.19635,16.79748
0.51931,0.00006,0.00005,0.00043,0.00358,0.00336,0.02608,25.57852,2.34542,2.1953,17.06436
0.5207,0.00008,0.00005,0.00043,0.00518,0.00336,0.02635,25.64674,3.40886,2.20686,17.33477
0.52208,0.0002,0.00005,0.00043,0.01234,0.00335,0.02663,25.71501,8.15683,2.21416,17.60892
0.52347,0.00012,0.00005,0.00044,0.0074,0.00334,0.02691,25.78322,4.91816,2.22233,17.88646
0.52485,0.0001,0.00005,0.00044,0.00618,0.00332,0.02718,25.85144,4.12798,2.22133,18.1676
0.52624,0.00018,0.00005,0.00045,0.01075,0.00333,0.02747,25.91971,7.22452,2.23856,18.45258
0.52762,0.00017,0.00005,0.00045,0.01044,0.00333,0.02775,25.98793,7.04824,2.24759,18.74102
0.52901,0.00005,0.00005,0.00046,0.00309,0.00331,0.02803,26.05614,2.09647,2.2459,19.03316
0.53039,0.00008,0.00005,0.00046,0.00496,0.00332,0.02832,26.12436,3.38694,2.2679,19.32902
0.53178,0.00017,0.00005,0.00047,0.01046,0.00331,0.02861,26.19263,7.17654,2.27035,19.62884
0.53316,0.00011,0.00005,0.00047,0.00697,0.00331,0.0289,26.26085,4.80374,2.28281,19.93224
0.53455,0.00009,0.00005,0.00048,0.0055,0.00331,0.0292,26.32907,3.81533,2.29584,20.23944
0.53594,0.0001,0.00005,0.00048,0.00608,0.0033,0.02949,26.39733,4.23819,2.30158,20.55071
0.53732,0.00006,0.00005,0.00049,0.00397,0.0033,0.02979,26.46555,2.77784,2.30879,20.86563
0.53871,0.00011,0.00005,0.00049,0.00648,0.0033,0.03009,26.53377,4.55985,2.32571,21.18445
0.54009,0.00012,0.00005,0.0005,0.0073,0.0033,0.03039,26.60203,5.16823,2.33467,21.50743
0.54148,0.00012,0.00005,0.0005,0.00755,0.0033,0.0307,26.67025,5.36812,2.34734,21.83415
0.54286,0.00002,0.00005,0.00051,0.0013,0.00329,0.031,26.73847,0.92788,2.35266,22.16485
0.54425,0.00002,0.00005,0.00051,0.00098,0.00329,0.03131,26.80674,0.70579,2.36525,22.49981
0.54563,0.00016,0.00005,0.00052,0.00982,0.0033,0.03162,26.87496,7.09215,2.38141,22.83859
0.54702,0.00002,0.00005,0.00052,0.00153,0.0033,0.03193,26.94317,1.1111,2.39341,23.18144
0.5484,0.00016,0.00005,0.00053,0.00962,0.0033,0.03225,27.01144,7.0195,2.40654,23.52866
0.54979,0.00011,0.00005,0.00053,0.00674,0.0033,0.03256,27.07966,4.94232,2.42076,23.87978
0.55117,0.00019,0.00005,0.00054,0.01157,0.0033,0.03288,27.14788,8.52874,2.43063,24.23506
0.55256,0.00009,0.00005,0.00054,0.00578,0.00329,0.0332,27.21614,4.2834,2.43389,24.59481
0.55394,0.00011,0.00005,0.00055,0.00653,0.00329,0.03353,27.28436,4.86005,2.45202,24.95854
0.55533,0.00017,0.00005,0.00055,0.0103,0.00331,0.03385,27.35258,7.7034,2.47551,25.32653
0.55671,0.00021,0.00005,0.00056,0.01316,0.0033,0.03418,27.42085,9.89392,2.48177,25.69909
0.5581,0.00013,0.00005,0.00056,0.00818,0.00329,0.03451,27.48906,6.18272,2.48755,26.07571
0.55949,0.00013,0.00005,0.00057,0.00824,0.00329,0.03484,27.55728,6.26055,2.49646,26.45669
0.56087,0.00018,0.00005,0.00057,0.01122,0.00329,0.03517,27.62555,8.5642,2.5129,26.84234
0.56226,0.00007,0.00005,0.00058,0.00432,0.00329,0.03551,27.69377,3.31559,2.52362,27.23213
0.56364,0.00013,0.00006,0.00058,0.0081,0.00346,0.03584,27.76198,6.24444,2.6662,27.62637
0.56503,0.00011,0.00006,0.00059,0.00688,0.00357,0.03618,27.83025,5.32845,2.76518,28.02539
0.56641,0.00016,0.00006,0.0006,0.00965,0.00364,0.03653,27.89847,7.50916,2.83564,28.42864
0.5678,0.00006,0.00006,0.0006,0.00373,0.00371,0.03687,27.96669,2.91854,2.89931,28.83644
0.56918,0.00019,0.00006,0.00061,0.01164,0.00376,0.03721,28.03495,9.14507,2.95526,29.24911
0.57057,0.00004,0.00006,0.00061,0.00224,0.00356,0.03756,28.10317,1.766,2.81124,29.66611
0.57195,0.0001,0.00006,0.00062,0.00627,0.00351,0.03791,28.17139,4.97377,2.7832,30.08774
0.57334,0.00015,0.00006,0.00062,0.00894,0.00349,0.03826,28.23961,7.13273,2.78659,30.51405
0.57472,0.00016,0.00006,0.00063,0.00959,0.00348,0.03862,28.30787,7.68248,2.78586,30.94538
0.57611,0.00018,0.00006,0.00064,0.01106,0.00347,0.03897,28.37609,8.90756,2.79603,31.38115
0.57749,0.00005,0.00006,0.00064,0.00303,0.00346,0.03933,28.44431,2.45217,2.7981,31.82168
0.57888,0.00011,0.00006,0.00065,0.00702,0.00345,0.03969,28.51258,5.70756,2.80291,32.26734
0.58027,0.00008,0.00006,0.00065,0.00492,0.00345,0.04005,28.58079,4.01703,2.81458,32.71753
0.58165,0.00009,0.00006,0.00066,0.00554,0.00345,0.04042,28.64901,4.55038,2.83313,33.17258
0.58304,0.00002,0.00006,0.00067,0.00126,0.00342,0.04078,28.71728,1.04245,2.81865,33.63287
0.58442,0.00019,0.00006,0.00067,0.01149,0.00344,0.04115,28.7855,9.52021,2.84989,34.09776
0.58581,0.00017,0.00006,0.00068,0.01017,0.00342,0.04152,28.85371,8.47058,2.84865,34.56762
0.58719,0.00017,0.00006,0.00068,0.01042,0.00342,0.04189,28.92198,8.71302,2.86279,35.04283
0.58858,0.00009,0.00006,0.00069,0.00561,0.00342,0.04227,28.9902,4.71303,2.87203,35.52274
0.58996,0.00007,0.00006,0.0007,0.00436,0.00342,0.04264,29.05842,3.68075,2.88549,36.00771
0.59135,0.0001,0.00006,0.0007,0.00641,0.00342,0.04302,29.12668,5.4386,2.89739,36.49814
0.59273,0.00011,0.00006,0.00071,0.00683,0.00342,0.0434,29.1949,5.82098,2.91407,36.99335
0.59412,0.00005,0.00006,0.00071,0.00294,0.0034,0.04378,29.26312,2.52013,2.912,37.49373
0.5955,0.00009,0.00006,0.00072,0.00564,0.00341,0.04417,29.33139,4.85425,2.93511,37.99968
0.59689,0.0001,0.00006,0.00073,0.00628,0.0034,0.04455,29.3996,5.42901,2.94226,38.5105
0.59827,0.00019,0.00006,0.00073,0.01192,0.0034,0.04494,29.46782,10.35377,2.95087,39.02659
0.59966,0.0001,0.00006,0.00074,0.00613,0.0034,0.04533,29.53609,5.34984,2.9704,39.54837
0.60105,0.00008,0.00006,0.00075,0.00462,0.00339,0.04573,29.60431,4.0463,2.97492,40.0751
0.60243,0.00003,0.00006,0.00075,0.00176,0.00339,0.04612,29.67253,1.54629,2.98524,40.60721
0.60382,0.00017,0.00006,0.00076,0.01048,0.00339,0.04652,29.74079,9.26758,3.00111,41.14511
0.6052,0.00015,0.00006,0.00077,0.00933,0.00338,0.04692,29.80901,8.28965,3.00366,41.68806
0.60659,0.00006,0.00006,0.00077,0.0035,0.00337,0.04732,29.87723,3.12838,3.01124,42.23648
0.60797,0.00003,0.00005,0.00078,0.00196,0.00337,0.04772,29.94549,1.75328,3.01764,42.79082
0.60936,0.00007,0.00005,0.00078,0.00432,0.00336,0.04812,30.01371,3.88975,3.02884,43.3503
0.61074,0.00009,0.00006,0.00079,0.00581,0.00338,0.04853,30.08193,5.25797,3.06,43.91536
0.61213,0.00021,0.00006,0.0008,0.01275,0.00339,0.04894,30.15015,11.59083,3.07794,44.48602
0.61351,0.0001,0.00006,0.0008,0.0063,0.00338,0.04935,30.21842,5.75241,3.08713,45.06275
0.6149,0.00012,0.00005,0.00081,0.00749,0.00337,0.04976,30.28663,6.86635,3.09288,45.64475
0.61628,0.00007,0.00005,0.00082,0.00399,0.00337,0.05018,30.35485,3.67451,3.10588,46.23246
0.61767,0.00024,0.00005,0.00083,0.01464,0.00336,0.05059,30.42312,13.54728,3.10967,46.82636
0.61905,0.00015,0.00005,0.00083,0.00924,0.00336,0.05101,30.49134,8.58861,3.12161,47.42561
0.62044,0.00019,0.00005,0.00084,0.01175,0.00337,0.05143,30.55955,10.97681,3.14437,48.03068
0.62183,0.00007,0.00006,0.00085,0.00439,0.00345,0.05185,30.62782,4.11372,3.23558,48.64205
0.62321,0.00012,0.00006,0.00085,0.00735,0.00362,0.05228,30.69604,6.92741,3.40957,49.25888
0.6246,0.00017,0.00006,0.00086,0.01027,0.0037,0.0527,30.76426,9.72087,3.50201,49.88162
0.62598,0.00011,0.00006,0.00087,0.00653,0.0038,0.05313,30.83252,6.20896,3.61146,50.51079
0.62737,0.00014,0.00006,0.00087,0.00863,0.00386,0.05356,30.90074,8.24318,3.68826,51.1455
0.62875,0.00015,0.00006,0.00088,0.00913,0.00372,0.054,30.96896,8.75525,3.57131,51.78625
0.63014,0.00005,0.00006,0.00089,0.00292,0.00365,0.05443,31.03723,2.8137,3.51544,52.43353
0.63152,0.00009,0.00006,0.00089,0.00572,0.00362,0.05487,31.10544,5.53371,3.49929,53.08645
0.63291,0.00011,0.00006,0.0009,0.00682,0.0036,0.05531,31.17366,6.62352,3.49549,53.74551
0.63429,0.00006,0.00006,0.00091,0.00363,0.00358,0.05575,31.24193,3.54076,3.49782,54.41123
0.63568,0.00011,0.00006,0.00092,0.00681,0.00357,0.05619,31.31015,6.67531,3.50245,55.08268
0.63706,0,0.00006,0.00092,0.00004,0.00355,0.05663,31.37836,0.03731,3.49794,55.76038
0.63845,0.00016,0.00006,0.00093,0.00985,0.00355,0.05708,31.44663,9.73945,3.51386,56.44486
0.63983,0.00007,0.00006,0.00094,0.00418,0.00354,0.05753,31.51485,4.14996,3.5136,57.13517
0.64122,0.00014,0.00006,0.00095,0.00848,0.00354,0.05798,31.58307,8.45491,3.52661,57.83184
0.64261,0.00006,0.00006,0.00095,0.00385,0.00353,0.05843,31.65133,3.85431,3.53567,58.53541
0.64399,0.00011,0.00006,0.00096,0.00692,0.00353,0.05888,31.71955,6.96453,3.55257,59.2449
0.64538,0.00004,0.00006,0.00097,0.00223,0.00352,0.05934,31.78777,2.25231,3.55668,59.96086
0.64676,0.00011,0.00006,0.00098,0.00684,0.00351,0.0598,31.85604,6.94265,3.56644,60.68385
0.64815,-0.00001,0.00006,0.00098,-0.00032,0.00352,0.06026,31.92425,-0.32877,3.58372,61.41285
0.64953,0.00014,0.00006,0.00099,0.00881,0.00352,0.06072,31.99247,9.01268,3.60577,62.14844
0.65092,0.00012,0.00006,0.001,0.00725,0.00352,0.06118,32.06069,7.45663,3.62253,62.89063
0.6523,0.00015,0.00006,0.00101,0.00895,0.0035,0.06165,32.12896,9.23382,3.6114,63.64002
0.65369,0.00004,0.00006,0.00101,0.00219,0.0035,0.06212,32.19717,2.26777,3.62445,64.39556
0.65507,0.00008,0.00006,0.00102,0.00521,0.00348,0.06259,32.26539,5.41954,3.62786,65.15783
0.65646,0.00013,0.00006,0.00103,0.00803,0.00348,0.06306,32.33366,8.39039,3.63503,65.92741
0.65784,0.00007,0.00006,0.00104,0.00441,0.00347,0.06353,32.40188,4.63058,3.64703,66.70324
0.65923,0.00011,0.00006,0.00104,0.00649,0.00347,0.06401,32.4701,6.84067,3.66002,67.4859
0.66061,0.00008,0.00006,0.00105,0.00514,0.00348,0.06449,32.53836,5.44656,3.68066,68.27602
0.662,0.00012,0.00006,0.00106,0.00716,0.00348,0.06497,32.60658,7.60925,3.69577,69.07247
0.66338,0.0001,0.00006,0.00107,0.0062,0.00348,0.06545,32.6748,6.62325,3.71184,69.87588
0.66477,0.00007,0.00006,0.00108,0.00454,0.00351,0.06593,32.74306,4.86989,3.75973,70.68686
0.66616,0.00008,0.00006,0.00108,0.00475,0.0035,0.06642,32.81128,5.10986,3.76634,71.50428
0.66754,0.00003,0.00006,0.00109,0.00156,0.00348,0.06691,32.8795,1.68515,3.76381,72.32876
0.66893,0.00003,0.00006,0.0011,0.00166,0.00349,0.06739,32.94777,1.7967,3.78426,73.16095
0.67031,0.00003,0.00006,0.00111,0.0021,0.0035,0.06789,33.01599,2.29243,3.81185,73.99968
0.6717,0.00009,0.00006,0.00112,0.00547,0.0035,0.06838,33.0842,5.99237,3.83515,74.84559
0.67308,0.00013,0.00006,0.00112,0.00814,0.00352,0.06887,33.15247,8.9412,3.86895,75.69933
0.67419,0.00011,0.00006,0.00113,0.00696,0.00351,0.06927,33.20704,7.67693,3.87564,76.38705