File: 2025/starling_2025/figures/experimental_comparison/saxs_scattering/experiment/n_cornid/mff_out.csv
#File Plotted Below: n_cornid_clean.dat,,,,,,,,,,
,,,,,,,,,,
    #Fit from 0.01-0.15 with polymer MFF,,,,,,,,,,
#Initial search parameter for I0 = 24.1623,,,,,,,,,,
#Initial search parameter for Rg = 30,,,,,,,,,,
#Initial search parameter for nu = 0.499881,,,,,,,,,,
#BestFit for I0 = 26.71706 +- 0.07248,,,,,,,,,,
#BestFit for I(0)/I0 = 1.00000 +- 0.00271,,,,,,,,,,
#BestFit for Rg = 48.60844 +- 0.12475,,,,,,,,,,
#BestFit for nu = 0.55970 +- 0.00205,,,,,,,,,,
#BestFit reduced chisquared = 0.85864,,,,,,,,,,
#-------------,,,,,,,,,,
#-------------,,,,,,,,,,
,,,,,,,,,,
    #q,I(q),Error,fit,I(q)/I0,Error/I0,fit/I0,qRg,((qRg)^2)I(q)/I0,((qRg)^2)*Error/I0,((qRg)^2)*fit/I0
0.01007,25.38804,0.36758,24.64028,0.95026,0.01376,0.92227,0.48935,0.22755,0.00329,0.22085
0.01101,24.54348,0.33677,24.25634,0.91864,0.01261,0.9079,0.53523,0.26316,0.00361,0.26008
0.01195,24.22695,0.31448,23.84889,0.9068,0.01177,0.89265,0.58111,0.30621,0.00397,0.30143
0.0129,23.65045,0.29504,23.42005,0.88522,0.01104,0.8766,0.62698,0.34799,0.00434,0.3446
0.01384,23.21542,0.27955,22.97191,0.86894,0.01046,0.85982,0.67286,0.3934,0.00474,0.38928
0.01479,22.83899,0.26589,22.5066,0.85485,0.00995,0.84241,0.71874,0.4416,0.00514,0.43517
0.01573,22.15819,0.25359,22.02624,0.82936,0.00949,0.82443,0.76461,0.48487,0.00555,0.48199
0.01667,21.40891,0.24195,21.53294,0.80132,0.00906,0.80596,0.81049,0.52638,0.00595,0.52943
0.01762,21.03631,0.23339,21.0288,0.78737,0.00874,0.78709,0.85637,0.57743,0.00641,0.57723
0.01856,20.578,0.22463,20.51597,0.77022,0.00841,0.7679,0.90224,0.62699,0.00684,0.6251
0.01951,19.75946,0.21588,19.99653,0.73958,0.00808,0.74846,0.94812,0.66484,0.00726,0.67281
0.02045,19.31284,0.20852,19.47261,0.72287,0.0078,0.72885,0.994,0.71421,0.00771,0.72012
0.02139,19.18688,0.20296,18.94626,0.71815,0.0076,0.70914,1.03987,0.77657,0.00821,0.76683
0.02234,18.4358,0.19596,18.41901,0.69004,0.00733,0.68941,1.08575,0.81346,0.00865,0.81272
0.02328,17.57625,0.1892,17.89224,0.65787,0.00708,0.66969,1.13163,0.84245,0.00907,0.8576
0.02422,17.40265,0.18455,17.36732,0.65137,0.00691,0.65005,1.17751,0.90314,0.00958,0.9013
0.02517,16.56012,0.17867,16.8456,0.61983,0.00669,0.63052,1.22338,0.92768,0.01001,0.94368
0.02611,16.28103,0.17413,16.32845,0.60939,0.00652,0.61116,1.26926,0.98174,0.0105,0.98459
0.02706,15.72732,0.16955,15.81724,0.58866,0.00635,0.59203,1.31514,1.01814,0.01098,1.02396
0.028,14.94992,0.16429,15.31332,0.55956,0.00615,0.57317,1.36101,1.03651,0.01139,1.06171
0.02894,14.7811,0.16082,14.81807,0.55325,0.00602,0.55463,1.40689,1.09506,0.01191,1.0978
0.02989,14.24339,0.15666,14.33286,0.53312,0.00586,0.53647,1.45277,1.12517,0.01238,1.13223
0.03083,13.77815,0.15317,13.85903,0.51571,0.00573,0.51873,1.49864,1.15824,0.01288,1.16504
0.03177,13.1677,0.14883,13.39778,0.49286,0.00557,0.50147,1.54452,1.17573,0.01329,1.19628
0.03272,12.89227,0.14731,12.94936,0.48255,0.00551,0.48469,1.5904,1.22054,0.01395,1.22595
0.03366,12.09278,0.14763,12.5138,0.45262,0.00553,0.46838,1.63628,1.21185,0.01479,1.25405
0.03461,12.1629,0.14965,12.09111,0.45525,0.0056,0.45256,1.68215,1.28819,0.01585,1.28059
0.03555,11.55791,0.15315,11.68131,0.4326,0.00573,0.43722,1.72803,1.29179,0.01712,1.30559
0.03649,11.17584,0.15488,11.28441,0.4183,0.0058,0.42237,1.77391,1.31629,0.01824,1.32908
0.03744,10.85958,0.15634,10.90042,0.40647,0.00585,0.40799,1.81978,1.34606,0.01938,1.35112
0.03838,10.77489,0.15757,10.52936,0.4033,0.0059,0.39411,1.86566,1.40375,0.02053,1.37176
0.03933,10.39765,0.15814,10.17125,0.38918,0.00592,0.3807,1.91154,1.42204,0.02163,1.39108
0.04027,9.94695,0.16612,9.82609,0.37231,0.00622,0.36778,1.95741,1.42648,0.02382,1.40915
0.04121,9.86112,0.17224,9.49391,0.36909,0.00645,0.35535,2.00329,1.48124,0.02587,1.42608
0.04216,9.07307,0.17472,9.17463,0.3396,0.00654,0.3434,2.04917,1.426,0.02746,1.44197
0.0431,8.8835,0.17919,8.86792,0.3325,0.00671,0.33192,2.09505,1.45943,0.02944,1.45687
0.04404,8.61319,0.18372,8.57339,0.32239,0.00688,0.3209,2.14092,1.47767,0.03152,1.47084
0.04499,8.25805,0.18651,8.29064,0.30909,0.00698,0.31031,2.1868,1.47811,0.03338,1.48394
0.04593,8.09939,0.18699,8.01928,0.30315,0.007,0.30016,2.23268,1.51118,0.03489,1.49623
0.04688,7.69908,0.17466,7.75892,0.28817,0.00654,0.29041,2.27855,1.49613,0.03394,1.50776
0.04782,7.53143,0.16971,7.50915,0.2819,0.00635,0.28106,2.32443,1.52308,0.03432,1.51857
0.04876,7.50045,0.16718,7.26958,0.28074,0.00626,0.2721,2.37031,1.57728,0.03516,1.52873
0.04971,7.27005,0.1639,7.03983,0.27211,0.00613,0.2635,2.41618,1.58858,0.03581,1.53827
0.05065,6.67889,0.16024,6.81948,0.24999,0.006,0.25525,2.46206,1.51535,0.03636,1.54725
0.05159,6.59497,0.15801,6.60816,0.24685,0.00591,0.24734,2.50794,1.55259,0.0372,1.5557
0.05254,6.49796,0.15523,6.40548,0.24321,0.00581,0.23975,2.55382,1.58623,0.03789,1.56366
0.05348,6.33288,0.15247,6.21111,0.23703,0.00571,0.23248,2.59969,1.60198,0.03857,1.57117
0.05443,5.93821,0.14903,6.02471,0.22226,0.00558,0.2255,2.64557,1.55562,0.03904,1.57829
0.05537,5.90223,0.14709,5.84598,0.22092,0.00551,0.21881,2.69145,1.60029,0.03988,1.58504
0.05631,5.69165,0.14472,5.67458,0.21303,0.00542,0.2124,2.73732,1.59625,0.04059,1.59147
0.05726,5.70244,0.14366,5.51019,0.21344,0.00538,0.20624,2.7832,1.65334,0.04165,1.59759
0.0582,5.42582,0.14204,5.35247,0.20308,0.00532,0.20034,2.82908,1.62542,0.04255,1.60345
0.05915,5.4444,0.14135,5.20111,0.20378,0.00529,0.19467,2.87495,1.68431,0.04373,1.60905
0.06009,5.18597,0.1399,5.05577,0.19411,0.00524,0.18923,2.92083,1.65598,0.04467,1.6144
0.06103,5.19768,0.13919,4.91614,0.19455,0.00521,0.18401,2.96671,1.71226,0.04585,1.61952
0.06198,4.87076,0.13774,4.78189,0.18231,0.00516,0.17898,3.01258,1.65457,0.04679,1.62438
0.06292,4.6582,0.13588,4.65272,0.17435,0.00509,0.17415,3.05846,1.63093,0.04757,1.62901
0.06386,4.52687,0.13486,4.52846,0.16944,0.00505,0.1695,3.10434,1.63286,0.04864,1.63343
0.06481,4.67335,0.13484,4.4089,0.17492,0.00505,0.16502,3.15022,1.73588,0.05009,1.63765
0.06575,4.24722,0.13275,4.29386,0.15897,0.00497,0.16072,3.19609,1.62388,0.05075,1.64172
0.0667,4.30499,0.13236,4.18315,0.16113,0.00495,0.15657,3.24197,1.69356,0.05207,1.64563
0.06764,4.25435,0.13167,4.07658,0.15924,0.00493,0.15258,3.28785,1.72134,0.05328,1.64942
0.06858,4.15232,0.13064,3.97396,0.15542,0.00489,0.14874,3.33372,1.72727,0.05434,1.65308
0.06953,3.81965,0.12885,3.87511,0.14297,0.00482,0.14504,3.3796,1.63292,0.05508,1.65663
0.07047,3.86676,0.12866,3.77983,0.14473,0.00482,0.14148,3.42548,1.69824,0.05651,1.66007
0.07141,3.66797,0.12725,3.68793,0.13729,0.00476,0.13804,3.47135,1.65438,0.05739,1.66338
0.07236,3.73438,0.12698,3.59923,0.13977,0.00475,0.13472,3.51723,1.72914,0.0588,1.66657
0.0733,3.52948,0.12566,3.51358,0.13211,0.0047,0.13151,3.56311,1.67718,0.05971,1.66962
0.07425,3.49796,0.12501,3.43085,0.13093,0.00468,0.12841,3.60899,1.70528,0.06094,1.67256
0.07519,3.20081,0.1236,3.35094,0.1198,0.00463,0.12542,3.65486,1.60035,0.0618,1.67541
0.07613,3.23502,0.12322,3.27375,0.12108,0.00461,0.12253,3.70074,1.65831,0.06316,1.67816
0.07708,3.25561,0.12273,3.19917,0.12185,0.00459,0.11974,3.74662,1.71049,0.06448,1.68084
0.07802,3.05729,0.12177,3.12709,0.11443,0.00456,0.11704,3.79249,1.64588,0.06555,1.68345
0.07897,2.94625,0.12071,3.0574,0.11028,0.00452,0.11444,3.83837,1.62471,0.06657,1.686
0.07991,3.18492,0.12116,2.99001,0.11921,0.00453,0.11191,3.88425,1.79855,0.06842,1.68848
0.08085,3.08112,0.12023,2.92479,0.11532,0.0045,0.10947,3.93012,1.78128,0.06951,1.6909
0.0818,2.92322,0.11927,2.86165,0.10941,0.00446,0.10711,3.976,1.72968,0.07057,1.69325
0.08274,2.92243,0.11879,2.80048,0.10938,0.00445,0.10482,4.02188,1.76935,0.07192,1.69551
0.08368,2.62559,0.11742,2.74119,0.09827,0.00439,0.1026,4.06776,1.6261,0.07272,1.6977
0.08463,2.59604,0.11676,2.68372,0.09717,0.00437,0.10045,4.11363,1.64427,0.07395,1.69981
0.08557,2.6613,0.11649,2.62801,0.09961,0.00436,0.09836,4.15951,1.72341,0.07544,1.70185
0.08652,2.70749,0.11624,2.57399,0.10134,0.00435,0.09634,4.20539,1.79222,0.07695,1.70385
0.08746,2.42539,0.11501,2.52161,0.09078,0.0043,0.09438,4.25126,1.6407,0.0778,1.70579
0.0884,2.41224,0.11434,2.47081,0.09029,0.00428,0.09248,4.29714,1.66721,0.07903,1.70769
0.08935,2.52453,0.11455,2.42152,0.09449,0.00429,0.09064,4.34302,1.78228,0.08087,1.70955
0.09029,2.34554,0.11339,2.37367,0.08779,0.00424,0.08884,4.38889,1.69108,0.08175,1.71136
0.09123,2.43668,0.11316,2.32722,0.0912,0.00424,0.08711,4.43477,1.79371,0.0833,1.71313
0.09218,2.18,0.11199,2.28209,0.0816,0.00419,0.08542,4.48065,1.63814,0.08416,1.71485
0.09312,2.13532,0.11145,2.23823,0.07992,0.00417,0.08378,4.52652,1.63758,0.08547,1.71651
0.09407,2.2381,0.11134,2.19559,0.08377,0.00417,0.08218,4.5724,1.75138,0.08713,1.71811
0.09501,2.22178,0.11098,2.15413,0.08316,0.00415,0.08063,4.61828,1.77367,0.0886,1.71967
0.09595,1.99233,0.1098,2.11382,0.07457,0.00411,0.07912,4.66416,1.62225,0.0894,1.72117
0.0969,1.98524,0.10949,2.07461,0.07431,0.0041,0.07765,4.71003,1.64843,0.09092,1.72264
0.09784,1.97519,0.10884,2.03647,0.07393,0.00407,0.07622,4.75591,1.6722,0.09214,1.72408
0.09879,1.99258,0.10863,1.99936,0.07458,0.00407,0.07483,4.80179,1.71962,0.09375,1.72547
0.09973,1.90276,0.10806,1.96325,0.07122,0.00404,0.07348,4.84766,1.67363,0.09505,1.72684
0.10067,1.99437,0.1078,1.9281,0.07465,0.00403,0.07217,4.89354,1.78757,0.09663,1.72817
0.10162,1.94337,0.10731,1.89387,0.07274,0.00402,0.07089,4.93942,1.77467,0.09799,1.72947
0.10256,1.85746,0.10666,1.86052,0.06952,0.00399,0.06964,4.9853,1.72787,0.09922,1.73072
0.1035,1.86635,0.10632,1.82802,0.06986,0.00398,0.06842,5.03117,1.76825,0.10073,1.73193
0.10445,1.78961,0.10567,1.79634,0.06698,0.00396,0.06724,5.07705,1.7266,0.10195,1.7331
0.10539,1.80009,0.10547,1.76546,0.06738,0.00395,0.06608,5.12293,1.76825,0.10361,1.73422
0.10634,1.81406,0.10523,1.73535,0.0679,0.00394,0.06495,5.1688,1.81402,0.10523,1.73531
0.10728,1.61977,0.10427,1.70598,0.06063,0.0039,0.06385,5.21468,1.64862,0.10613,1.73637
0.10822,1.5453,0.10363,1.67735,0.05784,0.00388,0.06278,5.26056,1.60062,0.10734,1.73739
0.10917,1.66263,0.10377,1.64941,0.06223,0.00388,0.06174,5.30643,1.75231,0.10936,1.73839
0.11011,1.60036,0.10298,1.62216,0.0599,0.00385,0.06072,5.35231,1.71597,0.11042,1.73935
0.11105,1.61153,0.10279,1.59556,0.06032,0.00385,0.05972,5.39819,1.7577,0.11211,1.74029
0.112,1.55001,0.10245,1.5696,0.05802,0.00383,0.05875,5.44406,1.71945,0.11365,1.74119
0.11294,1.75401,0.10265,1.54425,0.06565,0.00384,0.0578,5.48994,1.97869,0.1158,1.74206
0.11389,1.47808,0.10144,1.51948,0.05532,0.0038,0.05687,5.53582,1.6954,0.11635,1.74289
0.11483,1.35452,0.10073,1.49528,0.0507,0.00377,0.05597,5.5817,1.57953,0.11746,1.74368
0.11577,1.4709,0.10075,1.47164,0.05505,0.00377,0.05508,5.62757,1.74355,0.11943,1.74443
0.11672,1.49955,0.10049,1.44853,0.05613,0.00376,0.05422,5.67345,1.80662,0.12106,1.74516
0.11766,1.42887,0.09999,1.42596,0.05348,0.00374,0.05337,5.71933,1.74942,0.12243,1.74585
0.11861,1.3647,0.09953,1.40389,0.05108,0.00373,0.05255,5.7652,1.69777,0.12382,1.74652
0.11955,1.38917,0.09935,1.38232,0.052,0.00372,0.05174,5.81108,1.75582,0.12557,1.74717
0.12049,1.26251,0.103,1.36124,0.04725,0.00386,0.05095,5.85696,1.62103,0.13225,1.74779
0.12144,1.25164,0.10632,1.34061,0.04685,0.00398,0.05018,5.90283,1.63235,0.13866,1.74838
0.12238,1.22095,0.10888,1.32044,0.0457,0.00408,0.04942,5.94871,1.61716,0.14421,1.74895
0.12332,1.45075,0.11148,1.30071,0.0543,0.00417,0.04868,5.99459,1.95129,0.14994,1.74949
0.12427,1.29022,0.11273,1.2814,0.04829,0.00422,0.04796,6.04046,1.76204,0.15396,1.74999
0.12521,1.23374,0.11332,1.2625,0.04618,0.00424,0.04725,6.08634,1.7106,0.15712,1.75048
0.12616,1.004,0.11309,1.24401,0.03758,0.00423,0.04656,6.13222,1.41312,0.15917,1.75093
0.1271,1.238,0.10817,1.2259,0.04634,0.00405,0.04588,6.17809,1.76864,0.15453,1.75136
0.12804,1.0852,0.10411,1.20818,0.04062,0.0039,0.04522,6.22397,1.57346,0.15095,1.75177
0.12899,1.0972,0.10181,1.19083,0.04107,0.00381,0.04457,6.26985,1.61441,0.1498,1.75217
0.12993,1.08488,0.10015,1.17384,0.04061,0.00375,0.04394,6.31573,1.61972,0.14952,1.75254
0.13087,1.15606,0.09902,1.15721,0.04327,0.00371,0.04331,6.3616,1.75115,0.14999,1.7529
0.13182,1.10689,0.09822,1.14092,0.04143,0.00368,0.0427,6.40748,1.70094,0.15093,1.75324
0.13276,1.14523,0.09804,1.12496,0.04287,0.00367,0.04211,6.45336,1.78516,0.15282,1.75356
0.13371,1.11249,0.09745,1.10933,0.04164,0.00365,0.04152,6.49923,1.75887,0.15407,1.75386
0.13465,1.07395,0.09689,1.09401,0.0402,0.00363,0.04095,6.54511,1.72199,0.15535,1.75414
0.13559,0.94053,0.09616,1.07899,0.0352,0.0036,0.04039,6.59099,1.52928,0.15635,1.75441
0.13654,0.93353,0.09573,1.06428,0.03494,0.00358,0.03984,6.63686,1.5391,0.15783,1.75465
0.13748,1.05252,0.09563,1.04986,0.0394,0.00358,0.0393,6.68274,1.75934,0.15986,1.75489
0.13842,0.96154,0.09525,1.03572,0.03599,0.00357,0.03877,6.72862,1.62941,0.16141,1.75511
0.13937,1.02525,0.09495,1.02186,0.03837,0.00355,0.03825,6.77449,1.76114,0.1631,1.75533
0.14031,1.03205,0.09469,1.00828,0.03863,0.00354,0.03774,6.82037,1.79692,0.16487,1.75553
0.14126,0.929,0.09409,0.99496,0.03477,0.00352,0.03724,6.86625,1.63933,0.16604,1.75573
0.1422,1.03314,0.0942,0.98191,0.03867,0.00353,0.03675,6.91213,1.84753,0.16846,1.75592
0.14314,0.98674,0.09361,0.9691,0.03693,0.0035,0.03627,6.95801,1.78806,0.16963,1.75611
0.14409,0.91271,0.09311,0.95655,0.03416,0.00349,0.0358,7.00388,1.67579,0.17096,1.75628
0.14503,1.01504,0.09301,0.94423,0.03799,0.00348,0.03534,7.04976,1.88819,0.17302,1.75645
0.14598,0.87461,0.09238,0.93214,0.03274,0.00346,0.03489,7.09564,1.64819,0.17409,1.75661
0.14692,1.07858,0.09264,0.92029,0.04037,0.00347,0.03445,7.14151,2.05894,0.17685,1.75677
0.14786,0.84591,0.09177,0.90865,0.03166,0.00343,0.03401,7.18739,1.63561,0.17744,1.75692
0.14881,0.872,0.09159,0.89724,0.03264,0.00343,0.03358,7.23327,1.70764,0.17935,1.75707
0.14975,0.90099,0.09124,0.88604,0.03372,0.00342,0.03316,7.27914,1.78686,0.18095,1.75721
0.15069,1.00184,0.09121,0.87505,0.0375,0.00341,0.03275,7.32502,2.012,0.18317,1.75736
0.15164,0.83522,0.09075,0.86426,0.03126,0.0034,0.03235,7.3709,1.69845,0.18455,1.7575
0.15258,0.98841,0.09363,0.85366,0.037,0.0035,0.03195,7.41677,2.03507,0.19278,1.75763
0.15353,1.06309,0.0976,0.84326,0.03979,0.00365,0.03156,7.46265,2.21599,0.20345,1.75776
0.15447,0.73694,0.0988,0.83305,0.02758,0.0037,0.03118,7.50853,1.55507,0.20848,1.75789
0.15541,0.88632,0.09708,0.82302,0.03317,0.00363,0.0308,7.55441,1.89323,0.20738,1.75801
0.15636,0.85884,0.09445,0.81317,0.03215,0.00354,0.03044,7.60028,1.85687,0.2042,1.75813
0.1573,0.86287,0.09257,0.80349,0.0323,0.00346,0.03007,7.64616,1.88817,0.20257,1.75824
0.15824,0.82799,0.09058,0.79398,0.03099,0.00339,0.02972,7.69204,1.83367,0.2006,1.75834
0.15919,0.76119,0.0891,0.78464,0.02849,0.00333,0.02937,7.73791,1.7059,0.19968,1.75845
0.16013,0.72848,0.08864,0.77546,0.02727,0.00332,0.02902,7.78379,1.65201,0.20102,1.75855
0.16108,0.78451,0.08908,0.76644,0.02936,0.00333,0.02869,7.82967,1.80011,0.2044,1.75865
0.16202,0.78054,0.08908,0.75758,0.02922,0.00333,0.02836,7.87554,1.81204,0.20681,1.75874
0.16296,0.82724,0.08896,0.74887,0.03096,0.00333,0.02803,7.92142,1.94289,0.20894,1.75883
0.16391,0.86748,0.08878,0.74031,0.03247,0.00332,0.02771,7.9673,2.06107,0.21093,1.75892
0.16485,0.71071,0.08798,0.73189,0.0266,0.00329,0.02739,8.01317,1.70811,0.21144,1.759
0.1658,0.74292,0.08782,0.72361,0.02781,0.00329,0.02708,8.05905,1.80601,0.21348,1.75907
0.16674,0.80413,0.0877,0.71547,0.0301,0.00328,0.02678,8.10493,1.97714,0.21564,1.75914
0.16768,0.61539,0.08697,0.70746,0.02303,0.00326,0.02648,8.1508,1.53026,0.21627,1.7592
0.16863,0.72934,0.08703,0.69959,0.0273,0.00326,0.02619,8.19668,1.83408,0.21885,1.75926
0.16957,0.71934,0.08674,0.69185,0.02692,0.00325,0.0259,8.24256,1.82924,0.22058,1.75932
0.17051,0.6758,0.08647,0.68423,0.02529,0.00324,0.02561,8.28844,1.73771,0.22235,1.75937
0.17146,0.82134,0.08654,0.67674,0.03074,0.00324,0.02533,8.33431,2.13536,0.225,1.75942
0.1724,0.59315,0.08572,0.66937,0.0222,0.00321,0.02505,8.38019,1.55914,0.22532,1.75947
0.17335,0.71844,0.08582,0.66211,0.02689,0.00321,0.02478,8.42607,1.90921,0.22806,1.75952
0.17429,0.77214,0.08564,0.65498,0.0289,0.00321,0.02452,8.47194,2.0743,0.23005,1.75956
0.17523,0.71019,0.0853,0.64795,0.02658,0.00319,0.02425,8.51782,1.9286,0.23164,1.7596
0.17618,0.67315,0.08507,0.64104,0.0252,0.00318,0.02399,8.5637,1.84776,0.23351,1.75963
0.17712,0.81006,0.08503,0.63424,0.03032,0.00318,0.02374,8.60957,2.24746,0.23591,1.75966
0.17806,0.75418,0.08474,0.62754,0.02823,0.00317,0.02349,8.65545,2.1148,0.23761,1.75969
0.17901,0.732,0.08445,0.62095,0.0274,0.00316,0.02324,8.70133,2.07441,0.23934,1.75971
0.17995,0.67607,0.08416,0.61447,0.0253,0.00315,0.023,8.7472,1.93615,0.24101,1.75973
0.1809,0.67514,0.08388,0.60808,0.02527,0.00314,0.02276,8.79308,1.95382,0.24274,1.75976
0.18184,0.75391,0.08395,0.60179,0.02822,0.00314,0.02252,8.83896,2.20462,0.2455,1.75978
0.18278,0.69946,0.08347,0.5956,0.02618,0.00312,0.02229,8.88483,2.06667,0.24663,1.75979
0.18373,0.73293,0.08345,0.5895,0.02743,0.00312,0.02206,8.93072,2.188,0.24911,1.75981
0.18467,0.75565,0.08336,0.58349,0.02828,0.00312,0.02184,8.97659,2.27906,0.25142,1.75983
0.18562,0.63515,0.08275,0.57758,0.02377,0.0031,0.02162,9.02247,1.93525,0.25213,1.75984
0.18656,0.67207,0.08275,0.57175,0.02516,0.0031,0.0214,9.06835,2.06862,0.25469,1.75985
0.1875,0.68596,0.0825,0.56601,0.02567,0.00309,0.02119,9.11422,2.13279,0.25652,1.75985
0.18845,0.72669,0.08235,0.56036,0.0272,0.00308,0.02097,9.1601,2.28223,0.25863,1.75986
0.18939,0.67959,0.08209,0.55479,0.02544,0.00307,0.02077,9.20598,2.15576,0.2604,1.75986
0.19033,0.61525,0.08178,0.5493,0.02303,0.00306,0.02056,9.25185,1.97114,0.26202,1.75986
0.19128,0.67086,0.08172,0.54389,0.02511,0.00306,0.02036,9.29773,2.17067,0.26441,1.75986
0.19222,0.50963,0.08104,0.53856,0.01908,0.00303,0.02016,9.34361,1.66533,0.2648,1.75986
0.19317,0.49869,0.08093,0.53331,0.01867,0.00303,0.01996,9.38948,1.64559,0.26704,1.75985
0.19411,0.50123,0.08065,0.52813,0.01876,0.00302,0.01977,9.43536,1.67018,0.26873,1.75984
0.19505,0.48715,0.08026,0.52303,0.01823,0.003,0.01958,9.48124,1.63911,0.27004,1.75982
0.196,0.628,0.08019,0.518,0.02351,0.003,0.01939,9.52711,2.1335,0.27242,1.7598
0.19694,0.66683,0.08009,0.51304,0.02496,0.003,0.0192,9.57299,2.28728,0.27471,1.75978
0.19788,0.5901,0.07965,0.50815,0.02209,0.00298,0.01902,9.61887,2.04355,0.27585,1.75975
0.19883,0.65254,0.0799,0.50333,0.02442,0.00299,0.01884,9.66475,2.28137,0.27934,1.75971
0.19977,0.57258,0.07972,0.49857,0.02143,0.00298,0.01866,9.71062,2.02087,0.28135,1.75968
0.20072,0.62181,0.08143,0.49388,0.02327,0.00305,0.01849,9.7565,2.21542,0.29013,1.75964
0.20166,0.54848,0.0844,0.48926,0.02053,0.00316,0.01831,9.80238,1.97257,0.30355,1.7596
0.2026,0.55703,0.08609,0.4847,0.02085,0.00322,0.01814,9.84825,2.02212,0.31252,1.75955
0.20355,0.61395,0.08752,0.4802,0.02298,0.00328,0.01797,9.89413,2.24956,0.32068,1.75951
0.20449,0.61219,0.08786,0.47577,0.02291,0.00329,0.01781,9.94001,2.26399,0.32494,1.75946
0.20544,0.57138,0.08825,0.47139,0.02139,0.0033,0.01764,9.98588,2.13261,0.32938,1.75941
0.20638,0.5289,0.08857,0.46708,0.0198,0.00332,0.01748,10.03176,1.99223,0.33361,1.75936
0.20732,0.43916,0.08592,0.46282,0.01644,0.00322,0.01732,10.07764,1.66936,0.32662,1.75931
0.20827,0.5326,0.08322,0.45862,0.01993,0.00311,0.01717,10.12351,2.04305,0.31922,1.75926
0.20921,0.59839,0.0818,0.45448,0.0224,0.00306,0.01701,10.16939,2.31627,0.31661,1.7592
0.21015,0.52994,0.08083,0.45039,0.01984,0.00303,0.01686,10.21527,2.06985,0.31572,1.75914
0.2111,0.5268,0.08039,0.44636,0.01972,0.00301,0.01671,10.26115,2.0761,0.31681,1.75909
0.21204,0.5834,0.08006,0.44238,0.02184,0.003,0.01656,10.30702,2.31976,0.31832,1.75903
0.21299,0.49451,0.07956,0.43845,0.01851,0.00298,0.01641,10.3529,1.98384,0.31918,1.75897
0.21393,0.57698,0.07945,0.43458,0.0216,0.00297,0.01627,10.39878,2.33526,0.32158,1.75891
0.21487,0.4119,0.07872,0.43075,0.01542,0.00295,0.01612,10.44465,1.68185,0.32144,1.75884
0.21582,0.5236,0.07879,0.42698,0.0196,0.00295,0.01598,10.49053,2.15677,0.32457,1.75878
0.21676,0.52946,0.0786,0.42325,0.01982,0.00294,0.01584,10.53641,2.20004,0.32661,1.75871
0.2177,0.43937,0.07805,0.41957,0.01645,0.00292,0.0157,10.58228,1.84163,0.32717,1.75864
0.21865,0.5893,0.07816,0.41594,0.02206,0.00293,0.01557,10.62816,2.49153,0.33044,1.75857
0.21959,0.57615,0.07805,0.41236,0.02156,0.00292,0.01543,10.67404,2.45698,0.33286,1.75849
0.22054,0.57633,0.07773,0.40882,0.02157,0.00291,0.0153,10.71991,2.47892,0.33432,1.75842
0.22148,0.50612,0.07738,0.40532,0.01894,0.0029,0.01517,10.76579,2.1956,0.33569,1.75834
0.22242,0.61166,0.0775,0.40187,0.02289,0.0029,0.01504,10.81167,2.67615,0.33906,1.75827
0.22337,0.53356,0.07699,0.39847,0.01997,0.00288,0.01491,10.85754,2.3543,0.3397,1.7582
0.22431,0.51066,0.07677,0.39511,0.01911,0.00287,0.01479,10.90342,2.27231,0.34161,1.75812
0.22526,0.5129,0.07665,0.39179,0.0192,0.00287,0.01466,10.9493,2.30153,0.34394,1.75805
0.2262,0.48771,0.07636,0.38851,0.01825,0.00286,0.01454,10.99518,2.20688,0.34552,1.75798
0.22714,0.44325,0.07605,0.38527,0.01659,0.00285,0.01442,11.04106,2.02247,0.34699,1.75792
0.22809,0.48976,0.07594,0.38207,0.01833,0.00284,0.0143,11.08693,2.25331,0.34936,1.75785
0.22903,0.45544,0.07572,0.37892,0.01705,0.00283,0.01418,11.13281,2.11275,0.35125,1.75779
0.22997,0.45031,0.0756,0.3758,0.01685,0.00283,0.01407,11.17869,2.10623,0.35361,1.75773
0.23092,0.48858,0.07546,0.37272,0.01829,0.00282,0.01395,11.22456,2.30401,0.35583,1.75767
0.23186,0.50723,0.07532,0.36968,0.01899,0.00282,0.01384,11.27044,2.41157,0.35809,1.75762
0.23281,0.55057,0.07536,0.36668,0.02061,0.00282,0.01372,11.31632,2.63896,0.36122,1.75757
0.23375,0.58035,0.07517,0.36372,0.02172,0.00281,0.01361,11.36219,2.80429,0.36321,1.75752
0.23469,0.53112,0.07487,0.36079,0.01988,0.0028,0.0135,11.40807,2.58718,0.36471,1.75748
0.23564,0.42222,0.07446,0.3579,0.0158,0.00279,0.0134,11.45395,2.07328,0.36564,1.75745
0.23658,0.58628,0.07466,0.35504,0.02194,0.00279,0.01329,11.49982,2.90202,0.36955,1.75742
0.23752,0.4533,0.07429,0.35222,0.01697,0.00278,0.01318,11.5457,2.26172,0.37066,1.75739
0.23847,0.54485,0.07428,0.34944,0.02039,0.00278,0.01308,11.59158,2.74013,0.37359,1.75737
0.23941,0.59252,0.07427,0.34668,0.02218,0.00278,0.01298,11.63746,3.00352,0.37647,1.75736
0.24036,0.44406,0.07372,0.34396,0.01662,0.00276,0.01287,11.68333,2.26875,0.37663,1.75734
0.2413,0.44847,0.07356,0.34128,0.01679,0.00275,0.01277,11.72921,2.30933,0.37881,1.75733
0.24224,0.52333,0.0736,0.33862,0.01959,0.00275,0.01267,11.77509,2.71591,0.38194,1.75733
0.24319,0.43914,0.07324,0.336,0.01644,0.00274,0.01258,11.82096,2.29676,0.38307,1.75732
0.24413,0.4596,0.07319,0.3334,0.0172,0.00274,0.01248,11.86684,2.42251,0.38576,1.75731
0.24508,0.51141,0.07312,0.33084,0.01914,0.00274,0.01238,11.91272,2.71647,0.3884,1.75731
0.24602,0.5192,0.07296,0.3283,0.01943,0.00273,0.01229,11.95859,2.77909,0.39053,1.7573
0.24696,0.43433,0.07264,0.3258,0.01626,0.00272,0.01219,12.00447,2.3427,0.39179,1.75729
0.24791,0.51855,0.07268,0.32332,0.01941,0.00272,0.0121,12.05035,2.81841,0.39501,1.75727
0.24885,0.53302,0.07264,0.32087,0.01995,0.00272,0.01201,12.09622,2.91916,0.39783,1.75725
0.24979,0.29244,0.07188,0.31844,0.01095,0.00269,0.01192,12.1421,1.61375,0.39666,1.75723
0.25074,0.42873,0.07212,0.31604,0.01605,0.0027,0.01183,12.18798,2.38373,0.40098,1.75721
0.25168,0.41789,0.0719,0.31367,0.01564,0.00269,0.01174,12.23385,2.341,0.4028,1.75718
0.25263,0.52888,0.07191,0.31133,0.0198,0.00269,0.01165,12.27973,2.98502,0.40588,1.75715
0.25357,0.43473,0.07133,0.30901,0.01627,0.00267,0.01157,12.32561,2.47199,0.4056,1.75712
0.25451,0.41225,0.07118,0.30672,0.01543,0.00266,0.01148,12.37149,2.36166,0.40774,1.75708
0.25546,0.42431,0.07113,0.30445,0.01588,0.00266,0.0114,12.41737,2.44877,0.41052,1.75705
0.2564,0.39723,0.07079,0.3022,0.01487,0.00265,0.01131,12.46324,2.30947,0.41159,1.75701
0.25734,0.46845,0.071,0.29999,0.01753,0.00266,0.01123,12.50912,2.74367,0.41582,1.75697
0.25829,0.48903,0.07109,0.29779,0.0183,0.00266,0.01115,12.55499,2.88522,0.41943,1.75693
0.25923,0.53034,0.07101,0.29562,0.01985,0.00266,0.01106,12.60087,3.15185,0.42203,1.75689
0.26018,0.39951,0.07068,0.29347,0.01495,0.00265,0.01098,12.64675,2.39165,0.42311,1.75683
0.26112,0.40367,0.07051,0.29134,0.01511,0.00264,0.0109,12.69262,2.43413,0.4252,1.75677
0.26206,0.46986,0.07056,0.28923,0.01759,0.00264,0.01083,12.7385,2.85374,0.42856,1.75669
0.26301,0.51952,0.0705,0.28715,0.01945,0.00264,0.01075,12.78438,3.17813,0.43128,1.7566
0.26395,0.51764,0.07038,0.28508,0.01937,0.00263,0.01067,12.83025,3.1894,0.43366,1.75648
0.2649,0.47581,0.0702,0.28303,0.01781,0.00263,0.01059,12.87613,2.95269,0.4356,1.75634
0.26584,0.40896,0.06988,0.28099,0.01531,0.00262,0.01052,12.92201,2.55593,0.43673,1.75618
0.26678,0.45194,0.06981,0.27898,0.01692,0.00261,0.01044,12.96788,2.84465,0.43941,1.75598
0.26773,0.46682,0.06972,0.27698,0.01747,0.00261,0.01037,13.01377,2.95917,0.44197,1.75575
0.26867,0.48277,0.06965,0.27499,0.01807,0.00261,0.01029,13.05964,3.0819,0.44461,1.75548
0.26961,0.44955,0.0694,0.27302,0.01683,0.0026,0.01022,13.10552,2.89003,0.44618,1.75517
0.27056,0.43785,0.06938,0.27107,0.01639,0.0026,0.01015,13.1514,2.8345,0.44916,1.75482
0.2715,0.41801,0.06913,0.26913,0.01565,0.00259,0.01007,13.19727,2.72498,0.45064,1.75443
0.27245,0.39674,0.06896,0.2672,0.01485,0.00258,0.01,13.24315,2.60433,0.45269,1.75399
0.27339,0.40374,0.06879,0.26528,0.01511,0.00257,0.00993,13.28903,2.66873,0.45471,1.7535
0.27433,0.40673,0.06875,0.26338,0.01522,0.00257,0.00986,13.3349,2.70707,0.4576,1.75297
0.27528,0.46762,0.06876,0.26149,0.0175,0.00257,0.00979,13.38078,3.1338,0.4608,1.75239
0.27622,0.42383,0.0686,0.25961,0.01586,0.00257,0.00972,13.42666,2.85983,0.46285,1.75175
0.27716,0.38645,0.06835,0.25775,0.01446,0.00256,0.00965,13.47253,2.62542,0.46435,1.75106
0.27811,0.45656,0.06848,0.25589,0.01709,0.00256,0.00958,13.51841,3.12295,0.46838,1.75032
0.27905,0.41614,0.06815,0.25405,0.01558,0.00255,0.00951,13.56429,2.86579,0.46931,1.74951
0.28,0.37674,0.06801,0.25221,0.0141,0.00255,0.00944,13.61016,2.61202,0.47154,1.74865
0.28094,0.46851,0.06855,0.25039,0.01754,0.00257,0.00937,13.65604,3.27022,0.47849,1.74772
0.28188,0.43881,0.07131,0.24857,0.01642,0.00267,0.0093,13.70192,3.08354,0.50107,1.74672
0.28283,0.44437,0.07272,0.24676,0.01663,0.00272,0.00924,13.7478,3.14358,0.51444,1.74565
0.28377,0.40148,0.07312,0.24496,0.01503,0.00274,0.00917,13.79367,2.85915,0.52069,1.7445
0.28471,0.48938,0.07375,0.24317,0.01832,0.00276,0.0091,13.83955,3.50833,0.52871,1.74328
0.28566,0.35609,0.07378,0.24139,0.01333,0.00276,0.00903,13.88543,2.56977,0.53246,1.74198
0.2866,0.39279,0.07406,0.23961,0.0147,0.00277,0.00897,13.9313,2.85335,0.53798,1.74059
0.28755,0.39795,0.07347,0.23784,0.0149,0.00275,0.0089,13.97718,2.90993,0.53722,1.73912
0.28849,0.36439,0.07065,0.23607,0.01364,0.00264,0.00884,14.02306,2.68206,0.51999,1.73755
0.28943,0.37974,0.06952,0.23431,0.01421,0.0026,0.00877,14.06893,2.81332,0.51505,1.73589
0.29038,0.36497,0.06899,0.23255,0.01366,0.00258,0.0087,14.11481,2.72159,0.51445,1.73413
0.29132,0.22934,0.06844,0.2308,0.00858,0.00256,0.00864,14.16069,1.72129,0.51364,1.73227
0.29227,0.43091,0.0686,0.22905,0.01613,0.00257,0.00857,14.20656,3.25518,0.51822,1.73031
0.29321,0.30684,0.06814,0.22731,0.01148,0.00255,0.00851,14.25244,2.33294,0.51807,1.72825
0.29415,0.3514,0.06793,0.22557,0.01315,0.00254,0.00844,14.29832,2.68898,0.51978,1.72608
0.2951,0.44833,0.06801,0.22383,0.01678,0.00255,0.00838,14.3442,3.45273,0.52376,1.7238
0.29604,0.43661,0.0677,0.2221,0.01634,0.00253,0.00831,14.39008,3.384,0.52472,1.7214
0.29698,0.39844,0.06756,0.22037,0.01491,0.00253,0.00825,14.43595,3.1079,0.527,1.71889
0.29793,0.3063,0.06724,0.21864,0.01146,0.00252,0.00818,14.48183,2.40436,0.52782,1.71627
0.29887,0.34039,0.06711,0.21691,0.01274,0.00251,0.00812,14.52771,2.68893,0.53011,1.71352
0.29982,0.31456,0.06693,0.21519,0.01177,0.00251,0.00805,14.57358,2.50065,0.53205,1.71065
0.30076,0.40772,0.06697,0.21346,0.01526,0.00251,0.00799,14.61946,3.26167,0.53576,1.70765
0.3017,0.39676,0.06679,0.21174,0.01485,0.0025,0.00793,14.66534,3.19394,0.53769,1.70452
0.30265,0.26103,0.06635,0.21002,0.00977,0.00248,0.00786,14.71121,2.11444,0.53749,1.70126
0.30359,0.30466,0.06638,0.2083,0.0114,0.00248,0.0078,14.75709,2.48332,0.5411,1.69786
0.30453,0.39021,0.06628,0.20658,0.01461,0.00248,0.00773,14.80296,3.20044,0.5436,1.69431
0.30548,0.32402,0.06607,0.20486,0.01213,0.00247,0.00767,14.84884,2.67407,0.54526,1.69062
0.30642,0.28174,0.06584,0.20313,0.01055,0.00246,0.0076,14.89472,2.3395,0.54669,1.68678
0.30737,0.38122,0.0659,0.20141,0.01427,0.00247,0.00754,14.94059,3.18512,0.5506,1.68278
0.30831,0.34868,0.06574,0.19968,0.01305,0.00246,0.00747,14.98647,2.93117,0.55266,1.67863
0.30925,0.4521,0.06586,0.19796,0.01692,0.00246,0.00741,15.03235,3.82386,0.55702,1.67431
0.3102,0.36317,0.06549,0.19623,0.01359,0.00245,0.00734,15.07823,3.09046,0.55733,1.66982
0.31114,0.35595,0.0654,0.19449,0.01332,0.00245,0.00728,15.12411,3.04746,0.55996,1.66517
0.31209,0.3658,0.06524,0.19276,0.01369,0.00244,0.00721,15.16998,3.15084,0.56191,1.66033
0.31303,0.38299,0.06523,0.19102,0.01434,0.00244,0.00715,15.21586,3.31888,0.56528,1.65532
0.31397,0.29162,0.06494,0.18928,0.01091,0.00243,0.00708,15.26174,2.54232,0.56618,1.65012
0.31492,0.38219,0.06497,0.18753,0.01431,0.00243,0.00702,15.30761,3.35199,0.56983,1.64473
0.31586,0.35356,0.06483,0.18578,0.01323,0.00243,0.00695,15.35349,3.11956,0.57199,1.63914
0.3168,0.41546,0.06483,0.18402,0.01555,0.00243,0.00689,15.39937,3.68766,0.57542,1.63335
0.31775,0.3058,0.06453,0.18226,0.01145,0.00242,0.00682,15.44524,2.73044,0.57623,1.62736
0.31869,0.3563,0.06455,0.18049,0.01334,0.00242,0.00676,15.49112,3.20029,0.57983,1.62116
0.31964,0.35651,0.06438,0.17871,0.01334,0.00241,0.00669,15.537,3.2212,0.58172,1.61474
0.32058,0.46611,0.06426,0.17693,0.01745,0.00241,0.00662,15.58287,4.23639,0.58409,1.6081
0.32152,0.35692,0.06395,0.17514,0.01336,0.00239,0.00656,15.62875,3.26314,0.58465,1.60124
0.32247,0.33292,0.06381,0.17335,0.01246,0.00239,0.00649,15.67463,3.06159,0.58677,1.59414
0.32341,0.30454,0.06365,0.17155,0.0114,0.00238,0.00642,15.72051,2.81698,0.58878,1.58681
0.32435,0.39972,0.06375,0.16973,0.01496,0.00239,0.00635,15.76638,3.71905,0.59315,1.57923
0.3253,0.37824,0.06358,0.16792,0.01416,0.00238,0.00628,15.81226,3.53967,0.59497,1.57141
0.32624,0.23877,0.06338,0.16609,0.00894,0.00237,0.00622,15.85814,2.24751,0.5966,1.56334
0.32719,0.27579,0.0634,0.16425,0.01032,0.00237,0.00615,15.90401,2.61101,0.60022,1.55501
0.32813,0.30304,0.06337,0.1624,0.01134,0.00237,0.00608,15.94989,2.88555,0.60337,1.54641
0.32907,0.31628,0.06328,0.16055,0.01184,0.00237,0.00601,15.99577,3.02896,0.60601,1.53755
0.33002,0.32437,0.06323,0.15868,0.01214,0.00237,0.00594,16.04164,3.12428,0.60903,1.52841
0.33096,0.30146,0.06305,0.15681,0.01128,0.00236,0.00587,16.08752,2.92029,0.61074,1.51898
0.33191,0.1952,0.0627,0.15492,0.00731,0.00235,0.0058,16.1334,1.90167,0.61088,1.50927
0.33285,0.35083,0.06293,0.15302,0.01313,0.00236,0.00573,16.17927,3.43733,0.61654,1.49927
0.33379,0.46058,0.06304,0.15111,0.01724,0.00236,0.00566,16.22515,4.53832,0.62118,1.48896
0.33474,0.36221,0.06277,0.14919,0.01356,0.00235,0.00558,16.27103,3.58922,0.62205,1.47834
0.33568,0.28495,0.06252,0.14725,0.01067,0.00234,0.00551,16.3169,2.83959,0.623,1.4674
0.33662,0.18679,0.06223,0.1453,0.00699,0.00233,0.00544,16.36278,1.8719,0.62365,1.45614
0.33757,0.38751,0.06252,0.14334,0.0145,0.00234,0.00537,16.40866,3.90515,0.63002,1.44454
0.33851,0.24361,0.06212,0.14137,0.00912,0.00233,0.00529,16.45454,2.46871,0.62957,1.43261
0.33946,0.40966,0.06251,0.13938,0.01533,0.00234,0.00522,16.50042,4.1747,0.63703,1.42033
0.3404,0.11325,0.06417,0.13737,0.00424,0.0024,0.00514,16.54629,1.16047,0.65756,1.40769
0.34134,0.33289,0.06606,0.13535,0.01246,0.00247,0.00507,16.59217,3.43019,0.68074,1.39469
0.34229,0.369,0.06643,0.13331,0.01381,0.00249,0.00499,16.63805,3.82331,0.68829,1.38132
0.34323,0.48081,0.0668,0.13126,0.018,0.0025,0.00491,16.68392,5.00932,0.69596,1.36758
0.34417,0.30627,0.06683,0.1292,0.01146,0.0025,0.00484,16.7298,3.20842,0.70006,1.35346
0.34512,0.31128,0.06706,0.12711,0.01165,0.00251,0.00476,16.77568,3.27887,0.70635,1.33895
0.34606,0.34211,0.06739,0.12501,0.01281,0.00252,0.00468,16.82155,3.62338,0.71372,1.32405
0.34701,0.29738,0.06752,0.1229,0.01113,0.00253,0.0046,16.86743,3.16681,0.71904,1.30875
0.34795,0.33323,0.06781,0.12077,0.01247,0.00254,0.00452,16.91331,3.56788,0.72604,1.29304
0.34889,0.4145,0.06822,0.11862,0.01551,0.00255,0.00444,16.95918,4.4622,0.73441,1.27692
0.34984,0.34059,0.06826,0.11645,0.01275,0.00255,0.00436,17.00506,3.68641,0.73877,1.26038
0.35078,0.36498,0.06842,0.11426,0.01366,0.00256,0.00428,17.05094,3.97173,0.74459,1.24342
0.35173,0.16054,0.06807,0.11206,0.00601,0.00255,0.00419,17.09682,1.75645,0.7447,1.22602
0.35267,0.22659,0.06844,0.10984,0.00848,0.00256,0.00411,17.14269,2.49234,0.75284,1.20818
0.35361,0.33236,0.06887,0.1076,0.01244,0.00258,0.00403,17.18857,3.67541,0.76154,1.18989
0.35456,0.35023,0.06899,0.10534,0.01311,0.00258,0.00394,17.23445,3.89367,0.76705,1.17113
0.3555,0.30726,0.06902,0.10306,0.0115,0.00258,0.00386,17.28032,3.4342,0.77144,1.15191
0.35644,0.33206,0.06927,0.10076,0.01243,0.00259,0.00377,17.3262,3.73114,0.77836,1.1322
0.35739,0.36028,0.06946,0.09844,0.01349,0.0026,0.00368,17.37208,4.06967,0.78455,1.11201
0.35833,0.27061,0.06936,0.0961,0.01013,0.0026,0.0036,17.41795,3.07285,0.78759,1.09131
0.35928,0.27557,0.06948,0.09374,0.01031,0.0026,0.00351,17.46383,3.14571,0.79309,1.07011
0.36022,0.27642,0.06952,0.09136,0.01035,0.0026,0.00342,17.50971,3.17202,0.79782,1.04839
0.36116,0.28718,0.0698,0.08895,0.01075,0.00261,0.00333,17.55558,3.31275,0.80521,1.02614
0.36211,0.20755,0.07336,0.08653,0.00777,0.00275,0.00324,17.60146,2.40675,0.85073,1.00336
0.36305,0.23798,0.07496,0.08408,0.00891,0.00281,0.00315,17.64734,2.77402,0.87374,0.98003
0.36399,0.30165,0.07622,0.0816,0.01129,0.00285,0.00305,17.69321,3.53453,0.89309,0.95615
0.36494,0.36614,0.07728,0.0791,0.0137,0.00289,0.00296,17.73909,4.31238,0.91024,0.9317
0.36588,0.37513,0.07806,0.07658,0.01404,0.00292,0.00287,17.78497,4.44118,0.9242,0.90668
0.36683,0.38218,0.07884,0.07404,0.0143,0.00295,0.00277,17.83085,4.54801,0.93826,0.88109
0.36777,0.31225,0.07941,0.07147,0.01169,0.00297,0.00268,17.87672,3.73498,0.94982,0.8549
0.36871,0.42643,0.08035,0.06888,0.01596,0.00301,0.00258,17.9226,5.12699,0.96607,0.82812
0.36966,0.31746,0.08076,0.06626,0.01188,0.00302,0.00248,17.96848,3.83638,0.97592,0.80073
0.3706,0.35103,0.08141,0.06362,0.01314,0.00305,0.00238,18.01435,4.26381,0.98886,0.77272
0.37155,0.44859,0.08241,0.06095,0.01679,0.00308,0.00228,18.06023,5.4765,1.00605,0.74408
0.37249,0.30849,0.08279,0.05825,0.01155,0.0031,0.00218,18.10611,3.78531,1.01586,0.71481
0.37343,0.17604,0.0829,0.05553,0.00659,0.0031,0.00208,18.15198,2.17103,1.02236,0.6849
0.37438,0.35402,0.08415,0.05279,0.01325,0.00315,0.00198,18.19786,4.38818,1.04311,0.65433
0.37532,0.27851,0.08466,0.05002,0.01042,0.00317,0.00187,18.24374,3.46955,1.05461,0.62309
0.37626,0.18538,0.08496,0.04722,0.00694,0.00318,0.00177,18.28961,2.32109,1.0637,0.59118
0.37721,0.40653,0.08619,0.04439,0.01522,0.00323,0.00166,18.33549,5.11557,1.08462,0.55858
0.37815,0.40569,0.08675,0.04154,0.01518,0.00325,0.00155,18.38137,5.13056,1.09709,0.52528
0.3791,0.46325,0.08759,0.03865,0.01734,0.00328,0.00145,18.42725,5.88766,1.11319,0.49128
0.38004,0.2672,0.08756,0.03574,0.01,0.00328,0.00134,18.47313,3.4129,1.11841,0.45656
0.38098,0.38888,0.08866,0.03281,0.01456,0.00332,0.00123,18.519,4.99183,1.13808,0.42111
0.38193,0.33471,0.08902,0.02984,0.01253,0.00333,0.00112,18.56488,4.31787,1.14841,0.38493
0.38287,0.31256,0.08959,0.02684,0.0117,0.00335,0.001,18.61076,4.05201,1.16146,0.34799
0.38381,0.3945,0.09041,0.02382,0.01477,0.00338,0.00089,18.65663,5.1395,1.17789,0.3103
0.38476,0.33795,0.09091,0.02076,0.01265,0.0034,0.00078,18.70251,4.4245,1.19016,0.27183
0.3857,0.22222,0.09125,0.01768,0.00832,0.00342,0.00066,18.74839,2.92359,1.20051,0.23259
0.38665,0.1184,0.09141,0.01456,0.00443,0.00342,0.00055,18.79426,1.56537,1.2085,0.19255
0.38759,0.29401,0.09277,0.01142,0.011,0.00347,0.00043,18.84014,3.9061,1.23252,0.1517
0.38853,0.17473,0.09295,0.00824,0.00654,0.00348,0.00031,18.88602,2.33264,1.24086,0.11005
0.38948,0.23395,0.09384,0.00504,0.00876,0.00351,0.00019,18.93189,3.13845,1.25894,0.06756
0.39042,0.28261,0.09458,0.0018,0.01058,0.00354,0.00007,18.97777,3.80965,1.27501,0.02424
0.39137,0.46868,0.09575,-0.00147,0.01754,0.00358,-0.00006,19.02365,6.34851,1.29696,-0.01993
0.39231,0.37962,0.0959,-0.00477,0.01421,0.00359,-0.00018,19.06952,5.16706,1.30536,-0.06496
0.39325,0.32305,0.096,-0.00811,0.01209,0.00359,-0.0003,19.1154,4.41825,1.313,-0.11087
0.3942,0.21763,0.09625,-0.01147,0.00815,0.0036,-0.00043,19.16128,2.99072,1.32272,-0.15766
0.39514,0.31264,0.09689,-0.01487,0.0117,0.00363,-0.00056,19.20716,4.31704,1.3379,-0.20535
0.39608,0.19761,0.09666,-0.0183,0.0074,0.00362,-0.00069,19.25303,2.74162,1.34115,-0.25394
0.39703,0.31771,0.09728,-0.02177,0.01189,0.00364,-0.00081,19.29891,4.42904,1.35613,-0.30346
0.39797,0.3693,0.09776,-0.02527,0.01382,0.00366,-0.00095,19.34479,5.17273,1.36924,-0.3539
0.39892,0.2872,0.09823,-0.0288,0.01075,0.00368,-0.00108,19.39066,4.04189,1.38249,-0.4053
0.39986,0.3648,0.09907,-0.03237,0.01365,0.00371,-0.00121,19.43654,5.15826,1.40079,-0.45765
0.4008,0.21313,0.09938,-0.03597,0.00798,0.00372,-0.00135,19.48242,3.02789,1.41192,-0.51097
0.40175,0.23939,0.10007,-0.0396,0.00896,0.00375,-0.00148,19.52829,3.41699,1.42842,-0.56528
0.40269,0.32525,0.101,-0.04327,0.01217,0.00378,-0.00162,19.57417,4.66435,1.44845,-0.62058
0.40363,0.13472,0.10105,-0.04698,0.00504,0.00378,-0.00176,19.62005,1.94115,1.45589,-0.67689
0.40458,0.19884,0.10193,-0.05072,0.00744,0.00382,-0.0019,19.66592,2.87835,1.47546,-0.73422
0.40552,0.31796,0.10302,-0.0545,0.0119,0.00386,-0.00204,19.7118,4.62422,1.49828,-0.79259
0.40647,0.31516,0.10383,-0.05831,0.0118,0.00389,-0.00218,19.75768,4.60479,1.517,-0.852
0.40741,0.22503,0.10394,-0.06216,0.00842,0.00389,-0.00233,19.80356,3.30317,1.52576,-0.91249
0.40835,0.37295,0.1054,-0.06605,0.01396,0.00394,-0.00247,19.84943,5.49989,1.55429,-0.97404
0.4093,0.31336,0.10589,-0.06997,0.01173,0.00396,-0.00262,19.89531,4.64249,1.5688,-1.03668
0.41024,0.31405,0.10667,-0.07393,0.01175,0.00399,-0.00277,19.94119,4.67429,1.58766,-1.10043
0.41119,0.27296,0.10723,-0.07793,0.01022,0.00401,-0.00292,19.98706,4.08145,1.60338,-1.16529
0.41213,0.27872,0.108,-0.08197,0.01043,0.00404,-0.00307,20.03294,4.18668,1.6222,-1.23128
0.41307,0.19072,0.10865,-0.08605,0.00714,0.00407,-0.00322,20.07882,2.87799,1.63949,-1.29842
0.41402,0.4162,0.11005,-0.09016,0.01558,0.00412,-0.00337,20.12469,6.30912,1.66818,-1.36672
0.41496,0.40722,0.11066,-0.09431,0.01524,0.00414,-0.00353,20.17057,6.20124,1.68518,-1.43618
0.4159,0.31861,0.11144,-0.0985,0.01193,0.00417,-0.00369,20.21645,4.87389,1.7047,-1.50684
0.41685,0.29451,0.11208,-0.10273,0.01102,0.00419,-0.00385,20.26232,4.52577,1.72229,-1.5787
0.41779,0.23454,0.11268,-0.107,0.00878,0.00422,-0.00401,20.3082,3.62045,1.73942,-1.65178
0.41874,0.10933,0.11337,-0.11131,0.00409,0.00424,-0.00417,20.35408,1.69529,1.75796,-1.72608
0.41968,0.40235,0.11505,-0.11566,0.01506,0.00431,-0.00433,20.39995,6.26717,1.79203,-1.80164
0.42062,0.23019,0.11534,-0.12006,0.00862,0.00432,-0.00449,20.44584,3.60165,1.80471,-1.87846
0.42157,0.31185,0.11672,-0.12449,0.01167,0.00437,-0.00466,20.49171,4.90138,1.83446,-1.95655
0.42251,0.30246,0.1175,-0.12896,0.01132,0.0044,-0.00483,20.53759,4.77504,1.85505,-2.03593
0.42345,0.41719,0.11878,-0.13347,0.01562,0.00445,-0.005,20.58347,6.61585,1.88356,-2.11662
0.4244,0.26574,0.11927,-0.13803,0.00995,0.00446,-0.00517,20.62934,4.23289,1.89988,-2.19864
0.42534,-0.01184,0.11897,-0.14263,-0.00044,0.00445,-0.00534,20.67522,-0.18944,1.90354,-2.28199
0.42629,0.12488,0.12091,-0.14727,0.00467,0.00453,-0.00551,20.7211,2.00685,1.94309,-2.36669
0.42723,0.26277,0.1219,-0.15195,0.00984,0.00456,-0.00569,20.76697,4.24166,1.96769,-2.45277
0.42817,0.26525,0.1233,-0.15667,0.00993,0.00462,-0.00586,20.81285,4.30061,1.99914,-2.54023
0.42912,0.29073,0.12439,-0.16144,0.01088,0.00466,-0.00604,20.85873,4.7346,2.02565,-2.62909
0.43006,0.15384,0.12493,-0.16625,0.00576,0.00468,-0.00622,20.9046,2.51626,2.04345,-2.71937
0.43101,0.24608,0.12626,-0.17111,0.00921,0.00473,-0.0064,20.95048,4.04272,2.07427,-2.81109
0.43195,0.17637,0.12732,-0.17601,0.0066,0.00477,-0.00659,20.99636,2.91017,2.10083,-2.90425
0.43289,0.14827,0.12827,-0.18095,0.00555,0.0048,-0.00677,21.04223,2.45726,2.12576,-2.99888
0.43384,0.20392,0.12977,-0.18594,0.00763,0.00486,-0.00696,21.08811,3.39428,2.16007,-3.095
0.43478,0.28221,0.13096,-0.19097,0.01056,0.0049,-0.00715,21.13399,4.71791,2.1894,-3.19263
0.43572,0.30312,0.13233,-0.19605,0.01135,0.00495,-0.00734,21.17987,5.08954,2.22185,-3.29177
0.43667,0.30921,0.13371,-0.20118,0.01157,0.005,-0.00753,21.22574,5.21421,2.25484,-3.39244
0.43761,0.38136,0.13527,-0.20634,0.01427,0.00506,-0.00772,21.27162,6.45881,2.29098,-3.49467
0.43856,0.38021,0.13667,-0.21156,0.01423,0.00512,-0.00792,21.3175,6.46711,2.32468,-3.59846
0.4395,0.36518,0.13782,-0.21682,0.01367,0.00516,-0.00812,21.36337,6.23818,2.35438,-3.70384
0.44044,0.31081,0.13882,-0.22213,0.01163,0.0052,-0.00831,21.40925,5.3322,2.38166,-3.81083
0.44139,0.0502,0.13806,-0.22748,0.00188,0.00517,-0.00851,21.45513,0.86491,2.37864,-3.91944
0.44233,0.15138,0.13862,-0.23289,0.00567,0.00519,-0.00872,21.501,2.61933,2.39863,-4.02968
0.44327,0.2072,0.13873,-0.23833,0.00776,0.00519,-0.00892,21.54688,3.60058,2.41075,-4.14159
0.44422,0.26774,0.13963,-0.24383,0.01002,0.00523,-0.00913,21.59276,4.67245,2.4368,-4.25517
0.44516,0.3507,0.14073,-0.24938,0.01313,0.00527,-0.00933,21.63863,6.14628,2.46643,-4.37045
0.44611,0.06253,0.14112,-0.25497,0.00234,0.00528,-0.00954,21.68451,1.10051,2.48377,-4.48744
0.44705,0.46958,0.14438,-0.26061,0.01758,0.0054,-0.00975,21.73039,8.29959,2.55186,-4.60617
0.44799,0.14133,0.14429,-0.2663,0.00529,0.0054,-0.00997,21.77626,2.50854,2.56099,-4.72664
0.44894,0.22061,0.14623,-0.27204,0.00826,0.00547,-0.01018,21.82214,3.93225,2.60642,-4.8489
0.44988,0.30298,0.1486,-0.27783,0.01134,0.00556,-0.0104,21.86802,5.42305,2.65989,-4.97293
0.45083,0.20497,0.14959,-0.28367,0.00767,0.0056,-0.01062,21.9139,3.68421,2.68875,-5.09877
0.45177,0.25028,0.15158,-0.28956,0.00937,0.00567,-0.01084,21.95977,4.51748,2.7359,-5.22643
0.45271,0.25741,0.15327,-0.2955,0.00963,0.00574,-0.01106,22.00565,4.66555,2.77799,-5.35594
0.45366,0.21849,0.1546,-0.30149,0.00818,0.00579,-0.01128,22.05153,3.97661,2.8138,-5.48731
0.4546,0.39092,0.15752,-0.30753,0.01463,0.0059,-0.01151,22.0974,7.14469,2.87887,-5.62057
0.45554,0.16675,0.15859,-0.31362,0.00624,0.00594,-0.01174,22.14328,3.06034,2.91053,-5.75573
0.45649,0.33407,0.16139,-0.31976,0.0125,0.00604,-0.01197,22.18916,6.15651,2.97414,-5.89282
0.45743,0.45079,0.16403,-0.32596,0.01687,0.00614,-0.0122,22.23503,8.34179,3.03538,-6.03185
0.45838,0.3313,0.16553,-0.33221,0.0124,0.0062,-0.01243,22.28091,6.15597,3.07572,-6.17285
0.45932,0.25853,0.16792,-0.33851,0.00968,0.00629,-0.01267,22.32679,4.8237,3.13305,-6.31583
0.46026,0.05756,0.16904,-0.34486,0.00215,0.00633,-0.01291,22.37266,1.07833,3.16696,-6.46081
0.46121,0.3283,0.17264,-0.35126,0.01229,0.00646,-0.01315,22.41854,6.17587,3.24769,-6.60782
0.46215,0.77737,0.17809,-0.35772,0.0291,0.00667,-0.01339,22.46442,14.6834,3.36386,-6.75688
0.46309,0.12313,0.17707,-0.36423,0.00461,0.00663,-0.01363,22.5103,2.33533,3.3583,-6.90802
0.46404,0.05132,0.1792,-0.3708,0.00192,0.00671,-0.01388,22.55618,0.97725,3.41256,-7.06123
0.46498,0.2105,0.1829,-0.37742,0.00788,0.00685,-0.01413,22.60205,4.02491,3.49727,-7.21655
0.46593,0.27412,0.1862,-0.38409,0.01026,0.00697,-0.01438,22.64793,5.26274,3.57474,-7.374
0.46687,0.18772,0.18975,-0.39082,0.00703,0.0071,-0.01463,22.69381,3.61853,3.65764,-7.5336
0.46781,0.37453,0.19337,-0.3976,0.01402,0.00724,-0.01488,22.73968,7.24882,3.74265,-7.69538
0.46876,0.05836,0.19534,-0.40444,0.00218,0.00731,-0.01514,22.78556,1.13402,3.79595,-7.85935
0.4697,0.26336,0.20086,-0.41134,0.00986,0.00752,-0.0154,22.83144,5.13833,3.9189,-8.02553
0.47064,0.30209,0.20385,-0.41829,0.01131,0.00763,-0.01566,22.87731,5.91769,3.99326,-8.19396
0.47159,0.40555,0.20929,-0.42529,0.01518,0.00783,-0.01592,22.92319,7.97635,4.11639,-8.36464
0.47253,0.15019,0.21129,-0.43235,0.00562,0.00791,-0.01618,22.96907,2.96569,4.17223,-8.53761
0.47348,0.22257,0.21708,-0.43947,0.00833,0.00813,-0.01645,23.01494,4.41261,4.3038,-8.71288
0.47442,0.24614,0.22225,-0.44665,0.00921,0.00832,-0.01672,23.06082,4.89944,4.42378,-8.89048
0.47536,-0.36271,0.22285,-0.45388,-0.01358,0.00834,-0.01699,23.1067,-7.24854,4.45345,-9.07044
0.47631,0.41115,0.23425,-0.46117,0.01539,0.00877,-0.01726,23.15257,8.24916,4.69981,-9.25276
0.47725,0.56957,0.24159,-0.46852,0.02132,0.00904,-0.01754,23.19845,11.47299,4.86642,-9.4375
0.4782,0.40716,0.24669,-0.47593,0.01524,0.00923,-0.01781,23.24433,8.23409,4.98876,-9.62464
0.47914,0.61577,0.25632,-0.48339,0.02305,0.00959,-0.01809,23.29021,12.50191,5.20406,-9.81422
0.48008,0.06119,0.25922,-0.49091,0.00229,0.0097,-0.01837,23.33608,1.2473,5.2837,-10.00627
0.48103,0.40656,0.27104,-0.4985,0.01522,0.01014,-0.01866,23.38196,8.31947,5.5463,-10.20081
0.48197,0.43733,0.28113,-0.50614,0.01637,0.01052,-0.01894,23.42784,8.98431,5.77538,-10.39786
0.48291,0.48276,0.29182,-0.51384,0.01807,0.01092,-0.01923,23.47371,9.95639,6.01846,-10.59745
0.48386,0.27923,0.30183,-0.5216,0.01045,0.0113,-0.01952,23.51959,5.78138,6.24934,-10.7996
0.4848,0.14449,0.31374,-0.52942,0.00541,0.01174,-0.01982,23.56547,3.00333,6.52137,-11.00433
0.48575,0.8847,0.33686,-0.5373,0.03311,0.01261,-0.02011,23.61134,18.46068,7.02912,-11.21167
0.48669,0.61368,0.35113,-0.54524,0.02297,0.01314,-0.02041,23.65722,12.8552,7.3555,-11.42165
0.48763,0.10382,0.36591,-0.55325,0.00389,0.0137,-0.02071,23.7031,2.18328,7.69468,-11.63429
0.48858,0.25978,0.39244,-0.56131,0.00972,0.01469,-0.02101,23.74897,5.48408,8.28456,-11.84961
0.48952,0.104,0.42124,-0.56944,0.00389,0.01577,-0.02131,23.79485,2.20393,8.92697,-12.06763
0.49046,0.97351,0.47719,-0.57762,0.03644,0.01786,-0.02162,23.84073,20.71061,10.1518,-12.28842
0.49141,0.59753,0.51719,-0.58587,0.02237,0.01936,-0.02193,23.88661,12.76089,11.04522,-12.51193
0.49235,0.09756,0.5891,-0.59419,0.00365,0.02205,-0.02224,23.93248,2.0914,12.6291,-12.73824
0.4933,0.01926,0.7108,-0.60256,0.00072,0.0266,-0.02255,23.97836,0.41455,15.29679,-12.96735
0.49424,0.7368,0.98333,-0.611,0.02758,0.03681,-0.02287,24.02424,15.917,21.24278,-13.19929
0.49518,0.47504,2.25618,-0.6195,0.01778,0.08445,-0.02319,24.07011,10.30137,48.92622,-13.4341