File: 2025/starling_2025/analysis/experimental_comparison/saxs_scattering/experiment/hev_pnt3_yyy_aaa/mff_out.csv
#File Plotted Below: hev_pnt3_yyy_aaa.dat,,,,,,,,,,
,,,,,,,,,,
    #Fit from 0.01-0.15 with polymer MFF,,,,,,,,,,
#Initial search parameter for I0 = 0.0139793,,,,,,,,,,
#Initial search parameter for Rg = 30,,,,,,,,,,
#Initial search parameter for nu = 0.499881,,,,,,,,,,
#BestFit for I0 = 0.01499 +- 0.00004,,,,,,,,,,
#BestFit for I(0)/I0 = 1.00000 +- 0.00238,,,,,,,,,,
#BestFit for Rg = 27.37390 +- 0.06652,,,,,,,,,,
#BestFit for nu = 0.56907 +- 0.00625,,,,,,,,,,
#BestFit reduced chisquared = 1.44637,,,,,,,,,,
#-------------,,,,,,,,,,
#-------------,,,,,,,,,,
,,,,,,,,,,
    #q,I(q),Error,fit,I(q)/I0,Error/I0,fit/I0,qRg,((qRg)^2)I(q)/I0,((qRg)^2)*Error/I0,((qRg)^2)*fit/I0
0.01551,0.0143,0.0002,0.01411,0.95358,0.01358,0.94101,0.42449,0.17183,0.00245,0.16956
0.01642,0.0141,0.00019,0.01401,0.9402,0.0129,0.93408,0.44946,0.18993,0.00261,0.1887
0.01733,0.01406,0.00019,0.0139,0.93744,0.01236,0.92684,0.47443,0.211,0.00278,0.20862
0.01824,0.01381,0.00018,0.01378,0.92092,0.0119,0.91932,0.4994,0.22968,0.00297,0.22928
0.01916,0.01379,0.00017,0.01367,0.91947,0.01138,0.91151,0.52437,0.25282,0.00313,0.25063
0.02007,0.01386,0.00017,0.01355,0.92428,0.01112,0.90343,0.54934,0.27893,0.00335,0.27264
0.02098,0.01368,0.00016,0.01342,0.91233,0.01076,0.89511,0.57431,0.30091,0.00355,0.29523
0.02189,0.01355,0.00016,0.01329,0.90398,0.01055,0.88654,0.59928,0.32465,0.00379,0.31839
0.0228,0.01338,0.00015,0.01316,0.89247,0.01,0.87774,0.62425,0.34779,0.0039,0.34205
0.02372,0.01323,0.00015,0.01303,0.8825,0.00983,0.86873,0.64922,0.37196,0.00414,0.36616
0.02463,0.01313,0.00014,0.01289,0.87563,0.00961,0.85951,0.67419,0.398,0.00437,0.39068
0.02554,0.01301,0.00014,0.01275,0.86738,0.00945,0.85011,0.69916,0.424,0.00462,0.41555
0.02645,0.01244,0.00014,0.0126,0.82966,0.00917,0.84053,0.72413,0.43505,0.00481,0.44074
0.02737,0.01269,0.00014,0.01246,0.8462,0.00905,0.83078,0.7491,0.47484,0.00508,0.46619
0.02828,0.01249,0.00013,0.01231,0.83264,0.00864,0.82088,0.77407,0.4989,0.00518,0.49186
0.02919,0.01249,0.00013,0.01216,0.83316,0.00859,0.81084,0.79904,0.53194,0.00549,0.51769
0.0301,0.01203,0.00013,0.01201,0.80222,0.00843,0.80068,0.82401,0.5447,0.00572,0.54365
0.03101,0.01166,0.00012,0.01185,0.77784,0.00833,0.7904,0.84898,0.56064,0.006,0.56969
0.03193,0.01166,0.00012,0.0117,0.77766,0.00799,0.78002,0.87394,0.59396,0.00611,0.59576
0.03284,0.01158,0.00012,0.01154,0.77209,0.00795,0.76955,0.89892,0.62388,0.00643,0.62183
0.03375,0.01135,0.00012,0.01138,0.75702,0.00782,0.75901,0.92389,0.64616,0.00667,0.64786
0.03466,0.0113,0.00012,0.01122,0.7539,0.00768,0.7484,0.94885,0.67875,0.00692,0.6738
0.03557,0.01094,0.00011,0.01106,0.72955,0.00766,0.73774,0.97382,0.69186,0.00726,0.69963
0.03649,0.01096,0.00011,0.0109,0.73071,0.00749,0.72705,0.99879,0.72894,0.00748,0.72529
0.0374,0.01075,0.00011,0.01074,0.71665,0.00737,0.71633,1.02376,0.75111,0.00772,0.75077
0.03831,0.01063,0.00011,0.01058,0.70864,0.00728,0.70559,1.04873,0.77938,0.00801,0.77603
0.03922,0.01034,0.00011,0.01042,0.68973,0.00717,0.69484,1.0737,0.79514,0.00827,0.80104
0.04014,0.01017,0.00011,0.01026,0.6784,0.00702,0.6841,1.09867,0.81888,0.00848,0.82576
0.04105,0.00997,0.00011,0.0101,0.66487,0.00701,0.67336,1.12364,0.83944,0.00886,0.85016
0.04196,0.00983,0.0001,0.00994,0.65579,0.0069,0.66264,1.14861,0.86518,0.0091,0.87422
0.04287,0.00992,0.0001,0.00978,0.66146,0.00676,0.65195,1.17357,0.91101,0.00931,0.89792
0.04378,0.00962,0.0001,0.00962,0.6418,0.00671,0.64129,1.19854,0.92195,0.00964,0.92122
0.0447,0.00926,0.0001,0.00946,0.61726,0.00662,0.63067,1.22351,0.92403,0.0099,0.9441
0.04561,0.00907,0.0001,0.0093,0.6047,0.00644,0.6201,1.24848,0.94254,0.01004,0.96656
0.04652,0.00899,0.0001,0.00914,0.5995,0.00649,0.60959,1.27345,0.97219,0.01052,0.98856
0.04743,0.00888,0.0001,0.00898,0.59234,0.00637,0.59915,1.29842,0.99862,0.01074,1.0101
0.04834,0.00874,0.0001,0.00883,0.58314,0.00634,0.58878,1.32339,1.02129,0.01111,1.03117
0.04926,0.00853,0.00009,0.00867,0.56876,0.00622,0.5785,1.34835,1.03404,0.01131,1.05175
0.05017,0.00859,0.00009,0.00852,0.57313,0.00616,0.56831,1.37332,1.08093,0.01162,1.07183
0.05108,0.00828,0.00009,0.00837,0.55233,0.00606,0.55821,1.39829,1.07993,0.01186,1.09143
0.05199,0.00808,0.00009,0.00822,0.53871,0.00609,0.54823,1.42326,1.09125,0.01234,1.11053
0.05291,0.0079,0.00009,0.00807,0.52653,0.00602,0.53836,1.44823,1.10432,0.01264,1.12914
0.05382,0.00786,0.00009,0.00793,0.52403,0.00591,0.52862,1.47319,1.13729,0.01282,1.14727
0.05473,0.00764,0.00009,0.00778,0.50951,0.00598,0.51901,1.49816,1.14359,0.01342,1.16492
0.05564,0.00765,0.00009,0.00764,0.51007,0.00605,0.50955,1.52313,1.18333,0.01403,1.18211
0.05655,0.00771,0.00009,0.0075,0.51431,0.00608,0.50022,1.5481,1.23259,0.01456,1.19883
0.05747,0.0073,0.00009,0.00736,0.4866,0.0061,0.49104,1.57307,1.20411,0.01511,1.21509
0.05838,0.00709,0.00009,0.00723,0.47301,0.00604,0.482,1.59803,1.20793,0.01542,1.23088
0.05929,0.00692,0.00009,0.00709,0.46182,0.00602,0.4731,1.623,1.2165,0.01584,1.24621
0.0602,0.00688,0.00009,0.00696,0.45909,0.00602,0.46435,1.64797,1.24681,0.01634,1.26108
0.06111,0.00684,0.00009,0.00683,0.45636,0.00601,0.45574,1.67294,1.27723,0.01683,1.27549
0.06203,0.00653,0.00009,0.00671,0.43528,0.00598,0.44727,1.6979,1.25487,0.01724,1.28943
0.06294,0.00646,0.00009,0.00658,0.43073,0.00596,0.43895,1.72287,1.27853,0.01769,1.30293
0.06385,0.00632,0.00009,0.00646,0.42166,0.00596,0.43077,1.74784,1.28814,0.0182,1.31598
0.06476,0.0062,0.00009,0.00634,0.41337,0.00595,0.42274,1.7728,1.29914,0.0187,1.32859
0.06567,0.006,0.00009,0.00622,0.40047,0.00588,0.41485,1.79777,1.29432,0.019,1.34077
0.06659,0.00614,0.00009,0.0061,0.4093,0.0059,0.4071,1.82274,1.35985,0.01959,1.35253
0.0675,0.00597,0.00009,0.00599,0.3982,0.00582,0.3995,1.84771,1.35946,0.01987,1.36389
0.06841,0.00593,0.00009,0.00588,0.3956,0.00587,0.39204,1.87267,1.38732,0.0206,1.37484
0.06932,0.00585,0.00009,0.00577,0.38996,0.00586,0.38472,1.89764,1.40425,0.0211,1.3854
0.07023,0.0058,0.00009,0.00566,0.38678,0.00583,0.37755,1.9226,1.42968,0.02153,1.39559
0.07115,0.00568,0.00009,0.00556,0.37913,0.00577,0.37053,1.94757,1.43804,0.02189,1.40543
0.07206,0.00541,0.00009,0.00545,0.36075,0.00572,0.36365,1.97254,1.40365,0.02227,1.41493
0.07297,0.00538,0.00009,0.00535,0.35886,0.00574,0.35692,1.9975,1.43188,0.02292,1.4241
0.07388,0.00523,0.00009,0.00525,0.34912,0.0057,0.35033,2.02247,1.42802,0.02333,1.43296
0.0748,0.00526,0.00009,0.00516,0.35097,0.00571,0.34388,2.04744,1.47128,0.02392,1.44154
0.07571,0.00512,0.00008,0.00506,0.3417,0.00563,0.33757,2.0724,1.46757,0.02417,1.44982
0.07662,0.00487,0.00008,0.00497,0.3251,0.00558,0.3314,2.09737,1.43008,0.02453,1.45783
0.07753,0.00492,0.00008,0.00488,0.32833,0.00563,0.32537,2.12233,1.47891,0.02535,1.46557
0.07844,0.00476,0.00008,0.00479,0.31727,0.00557,0.31947,2.1473,1.46289,0.02567,1.47305
0.07936,0.00479,0.00008,0.0047,0.31947,0.00555,0.3137,2.17226,1.5075,0.02619,1.48029
0.08027,0.00469,0.00008,0.00462,0.31261,0.00553,0.30806,2.19723,1.50921,0.02671,1.48728
0.08118,0.00454,0.00008,0.00454,0.30249,0.00556,0.30255,2.22219,1.49376,0.02743,1.49404
0.08209,0.00453,0.00008,0.00446,0.30238,0.00546,0.29716,2.24716,1.52692,0.02757,1.50058
0.083,0.00445,0.00008,0.00438,0.2965,0.00545,0.29189,2.27212,1.53071,0.02812,1.50691
0.08392,0.0044,0.00008,0.0043,0.29355,0.00542,0.28674,2.29709,1.54897,0.02862,1.51303
0.08483,0.00438,0.00008,0.00422,0.29181,0.0054,0.28171,2.32205,1.57343,0.02913,1.51896
0.08574,0.00425,0.00008,0.00415,0.28318,0.00547,0.27679,2.34702,1.5599,0.03013,1.5247
0.08665,0.00414,0.00008,0.00408,0.27638,0.00539,0.27198,2.37198,1.555,0.03031,1.53026
0.08756,0.00409,0.00008,0.00401,0.2729,0.00536,0.26728,2.39695,1.56789,0.0308,1.53564
0.08848,0.00402,0.00008,0.00394,0.26787,0.00532,0.26269,2.42191,1.57126,0.03119,1.54086
0.08939,0.00385,0.00008,0.00387,0.25683,0.00532,0.2582,2.44688,1.53768,0.03185,1.54592
0.0903,0.00387,0.00008,0.00381,0.25819,0.00528,0.25382,2.47184,1.57755,0.03229,1.55083
0.09121,0.00385,0.00008,0.00374,0.25697,0.00526,0.24953,2.4968,1.60196,0.03281,1.55559
0.09212,0.00377,0.00008,0.00368,0.25113,0.00522,0.24534,2.52177,1.59704,0.03322,1.56021
0.09304,0.00357,0.00008,0.00362,0.23831,0.00522,0.24125,2.54673,1.54563,0.03385,1.5647
0.09395,0.00363,0.00008,0.00356,0.24228,0.00522,0.23725,2.57169,1.60237,0.03453,1.56906
0.09486,0.0034,0.00008,0.0035,0.22667,0.00519,0.23334,2.59666,1.52833,0.03499,1.57331
0.09577,0.00358,0.00008,0.00344,0.2386,0.00516,0.22952,2.62162,1.6399,0.03544,1.57744
0.09668,0.00341,0.00008,0.00339,0.22759,0.00517,0.22578,2.64658,1.59413,0.03621,1.58147
0.09759,0.00348,0.00008,0.00333,0.23188,0.00512,0.22213,2.67155,1.65493,0.03654,1.5854
0.09851,0.00333,0.00008,0.00328,0.22217,0.00512,0.21857,2.69651,1.61541,0.03725,1.58923
0.09942,0.00332,0.00008,0.00323,0.2211,0.0051,0.21508,2.72147,1.63758,0.0378,1.59298
0.10033,0.00329,0.00008,0.00317,0.21945,0.00513,0.21168,2.74642,1.6553,0.03866,1.59664
0.10124,0.0032,0.00008,0.00312,0.21364,0.00508,0.20835,2.77139,1.6409,0.03899,1.60022
0.10215,0.00323,0.00008,0.00308,0.21565,0.00502,0.20509,2.79635,1.68632,0.03923,1.60373
0.10307,0.00301,0.00008,0.00303,0.20092,0.00503,0.20191,2.82132,1.59925,0.04,1.60717
0.10398,0.00303,0.00008,0.00298,0.20175,0.00503,0.1988,2.84628,1.63446,0.04072,1.61053
0.10489,0.00296,0.00008,0.00294,0.19713,0.00503,0.19576,2.87125,1.62515,0.04144,1.61383
0.1058,0.00297,0.00008,0.00289,0.19804,0.00504,0.19278,2.89621,1.66121,0.04226,1.61707
0.10671,0.00289,0.00008,0.00285,0.19267,0.00512,0.18987,2.92118,1.64413,0.04365,1.62024
0.10762,0.00278,0.00008,0.0028,0.18526,0.00516,0.18703,2.94612,1.60797,0.04478,1.62333
0.10854,0.0029,0.00008,0.00276,0.19346,0.00513,0.18424,2.97108,1.70774,0.04526,1.62637
0.10945,0.0028,0.00008,0.00272,0.18664,0.00505,0.18152,2.99605,1.67534,0.04535,1.62934
0.11036,0.00273,0.00008,0.00268,0.18222,0.005,0.17885,3.02101,1.66303,0.04566,1.63224
0.11127,0.00258,0.00007,0.00264,0.17216,0.00494,0.17623,3.04598,1.59727,0.04581,1.63508
0.11219,0.00267,0.00007,0.0026,0.17798,0.00496,0.17367,3.07094,1.6785,0.04674,1.63785
0.1131,0.00269,0.00007,0.00257,0.17961,0.00489,0.17117,3.09591,1.72153,0.04687,1.64057
0.11401,0.0024,0.00007,0.00253,0.15985,0.00491,0.16872,3.12084,1.55686,0.04787,1.64324
0.11492,0.00245,0.00007,0.00249,0.16328,0.00485,0.16631,3.14581,1.61579,0.04803,1.64585
0.11583,0.0026,0.00007,0.00246,0.1732,0.0049,0.16396,3.17077,1.7413,0.04927,1.64843
0.11674,0.00258,0.00007,0.00242,0.17226,0.00485,0.16166,3.19574,1.75924,0.04949,1.65096
0.11766,0.00245,0.00007,0.00239,0.16315,0.00482,0.1594,3.2207,1.69239,0.05002,1.65345
0.11857,0.00245,0.00007,0.00236,0.16345,0.00478,0.15719,3.24567,1.72183,0.05035,1.65591
0.11948,0.00226,0.00007,0.00232,0.1506,0.00479,0.15503,3.27061,1.61097,0.0512,1.65833
0.12039,0.00243,0.00007,0.00229,0.16209,0.00478,0.15291,3.29557,1.76038,0.05188,1.66072
0.1213,0.0024,0.00007,0.00226,0.16001,0.00476,0.15083,3.32054,1.7643,0.05249,1.66308
0.12222,0.00227,0.00007,0.00223,0.15163,0.0047,0.1488,3.3455,1.69714,0.05263,1.6654
0.12313,0.00232,0.00007,0.0022,0.15465,0.00469,0.14681,3.37044,1.75675,0.05332,1.6677
0.12404,0.00208,0.00007,0.00217,0.13851,0.00465,0.14485,3.3954,1.59682,0.05364,1.66997
0.12495,0.00225,0.00007,0.00214,0.15028,0.0047,0.14294,3.42037,1.75814,0.05496,1.6722
0.12586,0.00206,0.00007,0.00212,0.13755,0.00466,0.14106,3.44533,1.63271,0.05537,1.67441
0.12677,0.00225,0.00007,0.00209,0.15024,0.00465,0.13922,3.47027,1.80933,0.056,1.67658
0.12768,0.00202,0.00007,0.00206,0.13448,0.00462,0.13741,3.49524,1.64284,0.05641,1.67871
0.1286,0.00191,0.00007,0.00203,0.1271,0.00461,0.13564,3.5202,1.57499,0.05711,1.68081
0.12951,0.00207,0.00007,0.00201,0.13775,0.0047,0.1339,3.54517,1.7313,0.05912,1.68287
0.13042,0.00191,0.00007,0.00198,0.12742,0.00476,0.13219,3.5701,1.6241,0.06063,1.6849
0.13133,0.00185,0.00007,0.00196,0.12321,0.00485,0.13052,3.59507,1.59242,0.06275,1.6869
0.13224,0.00196,0.00007,0.00193,0.13059,0.00485,0.12888,3.62003,1.71133,0.06358,1.68887
0.13316,0.00186,0.00007,0.00191,0.12392,0.00488,0.12726,3.645,1.64639,0.06479,1.69081
0.13407,0.00184,0.00007,0.00188,0.12293,0.00487,0.12568,3.66994,1.65573,0.06557,1.69273
0.13498,0.00181,0.00007,0.00186,0.1209,0.00488,0.12413,3.6949,1.65061,0.06664,1.69463
0.13589,0.00196,0.00007,0.00184,0.13075,0.00489,0.1226,3.71984,1.80925,0.06768,1.69651
0.1368,0.00177,0.00007,0.00182,0.11787,0.00492,0.12111,3.7448,1.65294,0.06899,1.69837
0.13771,0.00173,0.00007,0.00179,0.11543,0.00491,0.11964,3.76977,1.6404,0.06977,1.70021
0.13863,0.00169,0.00007,0.00177,0.11256,0.00492,0.1182,3.79473,1.6208,0.07085,1.70203
0.13954,0.00175,0.00007,0.00175,0.11688,0.00491,0.11678,3.81967,1.70532,0.07161,1.70384
0.14045,0.0018,0.00007,0.00173,0.12003,0.00492,0.11539,3.84464,1.77418,0.07278,1.70563
0.14136,0.00182,0.00007,0.00171,0.12134,0.00495,0.11403,3.8696,1.8169,0.07418,1.7074
0.14227,0.0016,0.00007,0.00169,0.10654,0.00494,0.11269,3.89454,1.61592,0.07496,1.70916
0.14318,0.00168,0.00007,0.00167,0.11177,0.00491,0.11137,3.9195,1.71713,0.07539,1.7109
0.1441,0.00156,0.00007,0.00165,0.10432,0.00488,0.11007,3.94444,1.62309,0.07585,1.71261
0.14501,0.00157,0.00007,0.00163,0.1045,0.00489,0.1088,3.96941,1.64649,0.077,1.71431
0.14592,0.0016,0.00007,0.00161,0.10688,0.00491,0.10755,3.99437,1.70523,0.0783,1.71599
0.14683,0.00157,0.00007,0.00159,0.10491,0.00492,0.10632,4.01931,1.6948,0.07952,1.71764
0.14774,0.00159,0.00007,0.00158,0.10597,0.00491,0.10511,4.04427,1.73328,0.08027,1.71927
0.14865,0.00146,0.00007,0.00156,0.09724,0.00489,0.10393,4.06921,1.61007,0.08098,1.72088
0.14957,0.00142,0.00007,0.00154,0.09447,0.00486,0.10276,4.09418,1.5835,0.08141,1.72246
0.15048,0.0014,0.00007,0.00152,0.09353,0.00488,0.10161,4.11911,1.5869,0.08273,1.72403
0.15139,0.0015,0.00007,0.00151,0.09999,0.00488,0.10048,4.14408,1.71718,0.08373,1.72559
0.1523,0.00138,0.00007,0.00149,0.09187,0.00487,0.09937,4.16904,1.59687,0.08472,1.72713
0.15321,0.0015,0.00007,0.00147,0.09984,0.00486,0.09828,4.19398,1.75614,0.08556,1.72865
0.15412,0.00137,0.00007,0.00146,0.09118,0.00484,0.0972,4.21895,1.6229,0.0862,1.73016
0.15503,0.00136,0.00007,0.00144,0.09075,0.00482,0.09615,4.24389,1.63451,0.08682,1.73165
0.15595,0.00142,0.00007,0.00143,0.09451,0.00484,0.09511,4.26885,1.72226,0.08824,1.73314
0.15686,0.00121,0.00007,0.00141,0.08073,0.00484,0.09409,4.29379,1.48848,0.08915,1.73461
0.15777,0.0013,0.00007,0.0014,0.0868,0.00483,0.09308,4.31875,1.61891,0.09013,1.73608
0.15868,0.00132,0.00007,0.00138,0.08771,0.00484,0.09209,4.34369,1.65493,0.09123,1.73753
0.15959,0.00123,0.00007,0.00137,0.08233,0.00478,0.09112,4.36866,1.57134,0.09121,1.73897
0.1605,0.00123,0.00007,0.00135,0.08209,0.00484,0.09016,4.39359,1.58455,0.09346,1.7404
0.16142,0.00128,0.00007,0.00134,0.08519,0.00479,0.08922,4.41856,1.66323,0.09351,1.74181
0.16233,0.00119,0.00007,0.00132,0.07964,0.0048,0.08829,4.4435,1.57246,0.09469,1.74322
0.16324,0.0012,0.00007,0.00131,0.08036,0.00481,0.08737,4.46846,1.60459,0.09602,1.74461
0.16415,0.00114,0.00007,0.0013,0.07624,0.00483,0.08647,4.4934,1.53934,0.09743,1.74598
0.16506,0.00123,0.00007,0.00128,0.08171,0.00477,0.08559,4.51834,1.66804,0.09736,1.74734
0.16597,0.00106,0.00007,0.00127,0.07071,0.00474,0.08472,4.5433,1.45964,0.09786,1.74868
0.16688,0.0012,0.00007,0.00126,0.07994,0.00474,0.08386,4.56824,1.66832,0.09892,1.75001
0.16779,0.00127,0.00007,0.00124,0.08468,0.00479,0.08301,4.5932,1.78661,0.10097,1.75132
0.16871,0.00118,0.00007,0.00123,0.07866,0.00482,0.08218,4.61814,1.67756,0.10276,1.75262
0.16962,0.00127,0.00007,0.00122,0.08475,0.00476,0.08136,4.64308,1.82716,0.10272,1.75391
0.17053,0.00103,0.00007,0.00121,0.06877,0.00474,0.08055,4.66804,1.49862,0.10326,1.75519
0.17144,0.0011,0.00007,0.0012,0.07315,0.00472,0.07975,4.69298,1.61105,0.10406,1.75645
0.17235,0.00112,0.00007,0.00118,0.07458,0.00475,0.07897,4.71795,1.6601,0.10564,1.75771
0.17326,0.00106,0.00007,0.00117,0.07101,0.00474,0.07819,4.74288,1.59732,0.10663,1.75896
0.17417,0.00111,0.00007,0.00116,0.07411,0.00475,0.07743,4.76782,1.6846,0.10804,1.7602
0.17509,0.00113,0.00007,0.00115,0.07542,0.0047,0.07668,4.79279,1.73252,0.1079,1.76143
0.176,0.00107,0.00007,0.00114,0.0714,0.00469,0.07594,4.81772,1.65712,0.10888,1.76264
0.17691,0.00112,0.00007,0.00113,0.07454,0.00467,0.07521,4.84266,1.74812,0.10959,1.76386
0.17782,0.00113,0.00007,0.00112,0.07515,0.00469,0.07449,4.86763,1.78061,0.1112,1.76506
0.17873,0.00108,0.00007,0.00111,0.07171,0.00468,0.07379,4.89256,1.71644,0.11211,1.76625
0.17964,0.00095,0.00007,0.0011,0.0631,0.00469,0.07309,4.9175,1.52595,0.11339,1.76743
0.18055,0.00103,0.00007,0.00109,0.06849,0.00479,0.0724,4.94247,1.67315,0.11695,1.7686
0.18146,0.001,0.00007,0.00108,0.06658,0.00492,0.07172,4.9674,1.6428,0.1215,1.76976
0.18238,0.00092,0.00007,0.00107,0.06147,0.00495,0.07105,4.99234,1.53209,0.12337,1.77091
0.18329,0.00111,0.00008,0.00106,0.07379,0.00505,0.07039,5.01728,1.85761,0.12717,1.77204
0.1842,0.00093,0.00008,0.00105,0.06192,0.00511,0.06974,5.04222,1.57435,0.12984,1.77316
0.18511,0.00085,0.00008,0.00104,0.05671,0.00511,0.0691,5.06718,1.45615,0.1313,1.77427
0.18602,0.00088,0.00008,0.00103,0.0589,0.00513,0.06847,5.09212,1.52727,0.13303,1.77536
0.18693,0.0009,0.00008,0.00102,0.06002,0.00518,0.06784,5.11706,1.57159,0.13555,1.77645
0.18784,0.00095,0.00008,0.00101,0.06341,0.00523,0.06723,5.142,1.67655,0.13827,1.77752
0.18876,0.00091,0.00008,0.001,0.06044,0.00518,0.06662,5.16696,1.61368,0.13842,1.77858
0.18967,0.00082,0.00008,0.00099,0.05466,0.00505,0.06602,5.1919,1.47332,0.13622,1.77964
0.19058,0.00084,0.00007,0.00098,0.05621,0.00497,0.06543,5.21684,1.52972,0.13513,1.78068
0.19149,0.0009,0.00007,0.00097,0.06027,0.00493,0.06485,5.24177,1.65608,0.13549,1.78171
0.1924,0.00098,0.00007,0.00096,0.06506,0.00489,0.06427,5.26671,1.80466,0.13552,1.78274
0.19331,0.00081,0.00007,0.00096,0.05423,0.00491,0.0637,5.29165,1.51851,0.13746,1.78376
0.19422,0.00085,0.00007,0.00095,0.05635,0.00484,0.06314,5.31661,1.59293,0.13671,1.78476
0.19513,0.00094,0.00007,0.00094,0.06254,0.00486,0.06259,5.34155,1.78443,0.13871,1.78576
0.19604,0.00082,0.00007,0.00093,0.05461,0.00478,0.06204,5.36649,1.57265,0.13771,1.78675
0.19695,0.00071,0.00007,0.00092,0.04738,0.00478,0.0615,5.39143,1.37731,0.13896,1.78773
0.19787,0.00079,0.00007,0.00091,0.05259,0.00476,0.06097,5.41636,1.5429,0.13951,1.7887
0.19878,0.00079,0.00007,0.00091,0.05252,0.00479,0.06045,5.4413,1.55493,0.14193,1.78966
0.19969,0.00086,0.00007,0.0009,0.05758,0.00475,0.05993,5.46624,1.7206,0.14184,1.79061
0.2006,0.00072,0.00007,0.00089,0.04828,0.00473,0.05941,5.49118,1.45576,0.14254,1.79154
0.20151,0.00069,0.00007,0.00088,0.04608,0.00473,0.05891,5.51614,1.40214,0.14404,1.79247
0.20242,0.00081,0.00007,0.00088,0.05391,0.00471,0.05841,5.54108,1.65534,0.14448,1.79338
0.20333,0.00076,0.00007,0.00087,0.05083,0.00469,0.05792,5.56602,1.57472,0.14538,1.79427
0.20424,0.00076,0.00007,0.00086,0.05056,0.00469,0.05743,5.59095,1.58051,0.14665,1.79516
0.20516,0.00077,0.00007,0.00085,0.0514,0.00468,0.05695,5.61589,1.62108,0.14748,1.79604
0.20607,0.00061,0.00007,0.00085,0.04043,0.00465,0.05647,5.64083,1.2864,0.14785,1.7969
0.20698,0.00083,0.00007,0.00084,0.0553,0.00465,0.056,5.66577,1.77506,0.14918,1.79776
0.20789,0.00078,0.00007,0.00083,0.05198,0.00463,0.05554,5.69071,1.68325,0.14993,1.79861
0.2088,0.00077,0.00007,0.00083,0.05151,0.00462,0.05508,5.71564,1.68284,0.15101,1.79944
0.20971,0.0006,0.00007,0.00082,0.04031,0.00458,0.05463,5.74058,1.32838,0.15104,1.80027
0.21062,0.00063,0.00007,0.00081,0.0422,0.0046,0.05418,5.76552,1.40268,0.15283,1.80109
0.21153,0.00075,0.00007,0.00081,0.04988,0.00459,0.05374,5.79046,1.67244,0.15388,1.8019
0.21244,0.00075,0.00007,0.0008,0.04995,0.00458,0.0533,5.81539,1.68941,0.1549,1.8027
0.21335,0.00062,0.00007,0.00079,0.04154,0.00453,0.05287,5.8403,1.41691,0.1544,1.80349
0.21426,0.00062,0.00007,0.00079,0.04105,0.00454,0.05245,5.86524,1.41201,0.15629,1.80427
0.21518,0.0007,0.00007,0.00078,0.04676,0.00456,0.05203,5.89018,1.62231,0.15811,1.80505
0.21609,0.00068,0.00007,0.00077,0.04555,0.00457,0.05161,5.91512,1.59374,0.15997,1.80581
0.217,0.00049,0.00007,0.00077,0.03252,0.00453,0.0512,5.94005,1.14734,0.1597,1.80656
0.21791,0.00054,0.00007,0.00076,0.03616,0.0045,0.05079,5.96499,1.28648,0.16013,1.80731
0.21882,0.00063,0.00007,0.00076,0.04185,0.00451,0.05039,5.98993,1.5015,0.16198,1.80804
0.21973,0.00081,0.00007,0.00075,0.05404,0.00454,0.05,6.01487,1.95503,0.16436,1.80877
0.22064,0.00062,0.00007,0.00074,0.0416,0.00454,0.0496,6.03978,1.51737,0.1655,1.80948
0.22155,0.00067,0.00007,0.00074,0.04436,0.0045,0.04922,6.06471,1.63156,0.16555,1.81018
0.22246,0.00067,0.00007,0.00073,0.04496,0.00447,0.04883,6.08965,1.66746,0.16569,1.81087
0.22337,0.0006,0.00007,0.00073,0.03991,0.00445,0.04845,6.11459,1.49218,0.16643,1.81156
0.22428,0.00048,0.00007,0.00072,0.03218,0.00445,0.04808,6.13953,1.21314,0.16756,1.81223
0.22519,0.00068,0.00007,0.00072,0.04541,0.00444,0.04771,6.16444,1.72545,0.16861,1.81289
0.22611,0.00062,0.00007,0.00071,0.0411,0.00444,0.04734,6.18938,1.57458,0.16992,1.81355
0.22702,0.00048,0.00007,0.0007,0.03181,0.00437,0.04698,6.21431,1.22839,0.16867,1.8142
0.22793,0.00058,0.00007,0.0007,0.03859,0.00439,0.04662,6.23925,1.50235,0.17081,1.81485
0.22884,0.00061,0.00007,0.00069,0.04054,0.00436,0.04627,6.26416,1.59065,0.17097,1.81548
0.22975,0.00044,0.00007,0.00069,0.02951,0.00436,0.04592,6.2891,1.16731,0.17262,1.81611
0.23066,0.00067,0.00007,0.00068,0.0449,0.00439,0.04557,6.31404,1.79011,0.17488,1.81673
0.23157,0.00057,0.00007,0.00068,0.03784,0.00437,0.04523,6.33897,1.52064,0.17564,1.81735
0.23248,0.00053,0.00007,0.00067,0.03505,0.00436,0.04489,6.36388,1.41933,0.17665,1.81795
0.23339,0.00064,0.00007,0.00067,0.04297,0.00437,0.04455,6.38882,1.75409,0.17843,1.81856
0.2343,0.00057,0.00006,0.00066,0.03781,0.00433,0.04422,6.41376,1.5553,0.17819,1.81915
0.23521,0.00058,0.00006,0.00066,0.0385,0.00433,0.0439,6.43867,1.59611,0.17958,1.81974
0.23612,0.00057,0.00007,0.00065,0.03808,0.00434,0.04357,6.46361,1.59084,0.18128,1.82032
0.23703,0.00065,0.00006,0.00065,0.04303,0.00433,0.04325,6.48854,1.81173,0.18221,1.8209
0.23794,0.00046,0.00006,0.00064,0.03036,0.00431,0.04293,6.51346,1.288,0.18273,1.82147
0.23886,0.00049,0.00006,0.00064,0.03298,0.00429,0.04262,6.53839,1.40978,0.18335,1.82203
0.23977,0.00055,0.00006,0.00063,0.03674,0.00428,0.04231,6.5633,1.58281,0.18449,1.82258
0.24068,0.00044,0.00006,0.00063,0.02903,0.00428,0.042,6.58824,1.26022,0.18595,1.82313
0.24159,0.00049,0.00006,0.00063,0.03275,0.00431,0.0417,6.61318,1.4321,0.18852,1.82368
0.2425,0.00056,0.00006,0.00062,0.03752,0.00425,0.0414,6.63809,1.65338,0.18749,1.82421
0.24341,0.00039,0.00006,0.00062,0.02626,0.00429,0.0411,6.66303,1.1658,0.19057,1.82475
0.24432,0.00056,0.00006,0.00061,0.03722,0.00424,0.04081,6.68794,1.66461,0.18967,1.82528
0.24523,0.00056,0.00006,0.00061,0.03748,0.00425,0.04052,6.71287,1.68874,0.19169,1.8258
0.24614,0.00054,0.00006,0.0006,0.0357,0.00426,0.04023,6.73778,1.62091,0.19348,1.82632
0.24705,0.00048,0.00006,0.0006,0.03211,0.00428,0.03994,6.76272,1.46843,0.19588,1.82684
0.24796,0.00047,0.00006,0.00059,0.03158,0.00424,0.03966,6.78763,1.45495,0.19556,1.82735
0.24887,0.00039,0.00006,0.00059,0.02574,0.00424,0.03938,6.81257,1.19444,0.19664,1.82786
0.24978,0.00048,0.00006,0.00059,0.03185,0.00421,0.03911,6.83748,1.48921,0.19704,1.82837
0.25069,0.00051,0.00006,0.00058,0.03381,0.00421,0.03884,6.86242,1.5922,0.19821,1.82887
0.2516,0.00045,0.00006,0.00058,0.03003,0.00424,0.03857,6.88733,1.42455,0.20113,1.82937
0.25251,0.00039,0.00006,0.00057,0.02621,0.00424,0.0383,6.91227,1.25225,0.20264,1.82987
0.25342,0.00051,0.00006,0.00057,0.03419,0.00421,0.03803,6.93718,1.64527,0.20271,1.83036
0.25433,0.00046,0.00006,0.00057,0.03047,0.00421,0.03777,6.96209,1.47666,0.20396,1.83085
0.25524,0.00051,0.00006,0.00056,0.03379,0.0042,0.03751,6.98702,1.64972,0.20481,1.83134
0.25615,0.00045,0.00006,0.00056,0.02995,0.00417,0.03726,7.01193,1.47276,0.20485,1.83182
0.25706,0.0004,0.00006,0.00055,0.02636,0.00417,0.037,7.03684,1.30523,0.20664,1.8323
0.25798,0.00054,0.00006,0.00055,0.03629,0.00416,0.03675,7.06178,1.80961,0.20747,1.83278
0.25888,0.00055,0.00006,0.00055,0.03653,0.00417,0.0365,7.08669,1.83435,0.20954,1.83326
0.2598,0.0005,0.00006,0.00054,0.03367,0.00416,0.03626,7.11163,1.70304,0.21019,1.83373
0.26071,0.00045,0.00006,0.00054,0.03,0.00417,0.03601,7.13654,1.52767,0.21256,1.8342
0.26162,0.00045,0.00006,0.00054,0.0299,0.00415,0.03577,7.16145,1.53344,0.21289,1.83467
0.26253,0.00052,0.00006,0.00053,0.03437,0.00418,0.03553,7.18636,1.77504,0.21563,1.83513
0.26344,0.00051,0.00006,0.00053,0.03393,0.00415,0.0353,7.2113,1.76439,0.21564,1.8356
0.26435,0.00042,0.00006,0.00053,0.02775,0.00415,0.03506,7.23621,1.45316,0.21717,1.83606
0.26526,0.00041,0.00006,0.00052,0.02708,0.00411,0.03483,7.26112,1.4277,0.2168,1.83652
0.26617,0.00048,0.00006,0.00052,0.03194,0.00413,0.0346,7.28603,1.69552,0.21935,1.83697
0.26708,0.00044,0.00006,0.00052,0.02928,0.00413,0.03438,7.31097,1.56508,0.22052,1.83743
0.26799,0.00043,0.00006,0.00051,0.02861,0.00415,0.03415,7.33588,1.53941,0.22326,1.83788
0.2689,0.00058,0.00006,0.00051,0.03901,0.00412,0.03393,7.36079,2.11349,0.2232,1.83834
0.26981,0.00047,0.00006,0.00051,0.0316,0.0041,0.03371,7.3857,1.72376,0.22389,1.83879
0.27072,0.0005,0.00006,0.0005,0.03314,0.0041,0.03349,7.41061,1.82011,0.2252,1.83924
0.27163,0.00037,0.00006,0.0005,0.02438,0.0041,0.03328,7.43552,1.34783,0.22682,1.83968
0.27254,0.0004,0.00006,0.0005,0.02675,0.00408,0.03306,7.46046,1.48887,0.22725,1.84013
0.27345,0.00045,0.00006,0.00049,0.03031,0.00407,0.03285,7.48537,1.69825,0.22811,1.84057
0.27436,0.00048,0.00006,0.00049,0.03202,0.0041,0.03264,7.51028,1.80632,0.23152,1.84101
0.27527,0.00038,0.00006,0.00049,0.02558,0.00407,0.03243,7.53519,1.45223,0.23107,1.84144
0.27618,0.0005,0.00006,0.00048,0.03314,0.00408,0.03223,7.5601,1.89422,0.23303,1.84188
0.27709,0.00038,0.00006,0.00048,0.02564,0.00402,0.03202,7.58501,1.47536,0.23135,1.84231
0.278,0.00044,0.00006,0.00048,0.02939,0.00407,0.03182,7.60992,1.70218,0.2356,1.84274
0.27891,0.00049,0.00006,0.00047,0.03246,0.00407,0.03162,7.63483,1.89188,0.23696,1.84316
0.27982,0.00043,0.00006,0.00047,0.02859,0.00406,0.03142,7.65974,1.6774,0.23832,1.84359
0.28073,0.00037,0.00006,0.00047,0.02501,0.00405,0.03123,7.68465,1.47688,0.23919,1.84401
0.28164,0.00042,0.00006,0.00047,0.02794,0.00401,0.03103,7.70956,1.66057,0.23849,1.84443
0.28255,0.00042,0.00006,0.00046,0.02783,0.00403,0.03084,7.73447,1.6648,0.24136,1.84485
0.28346,0.00045,0.00006,0.00046,0.02973,0.00406,0.03065,7.75938,1.79003,0.24428,1.84527
0.28437,0.00041,0.00006,0.00046,0.02742,0.00404,0.03046,7.78429,1.66149,0.24506,1.84569
0.28528,0.00042,0.00006,0.00045,0.02775,0.00404,0.03027,7.8092,1.69258,0.24651,1.8461
0.28619,0.00037,0.00006,0.00045,0.02438,0.00401,0.03009,7.83411,1.49644,0.24615,1.84651
0.2871,0.00031,0.00006,0.00045,0.02048,0.00397,0.0299,7.85902,1.26524,0.24528,1.84692
0.28801,0.00046,0.00006,0.00045,0.03079,0.004,0.02972,7.88393,1.91379,0.24893,1.84733
0.28892,0.00041,0.00006,0.00044,0.02766,0.00401,0.02954,7.90884,1.73025,0.2507,1.84773
0.28983,0.00046,0.00006,0.00044,0.03082,0.004,0.02936,7.93375,1.94018,0.25183,1.84814
0.29074,0.00047,0.00006,0.00044,0.03143,0.00397,0.02918,7.95863,1.99049,0.25171,1.84854
0.29165,0.00035,0.00006,0.00043,0.02333,0.00398,0.02901,7.98354,1.48717,0.2535,1.84894
0.29256,0.00037,0.00006,0.00043,0.02483,0.00395,0.02883,8.00845,1.59229,0.25356,1.84933
0.29347,0.00033,0.00006,0.00043,0.02183,0.00398,0.02866,8.03336,1.40872,0.25711,1.84973
0.29438,0.00029,0.00006,0.00043,0.01965,0.00399,0.02849,8.05827,1.27616,0.2588,1.85012
0.29529,0.00037,0.00006,0.00042,0.02479,0.00397,0.02832,8.08316,1.62001,0.25971,1.8505
0.2962,0.00041,0.00006,0.00042,0.02707,0.00395,0.02815,8.10807,1.77991,0.25969,1.85089
0.29711,0.00045,0.00006,0.00042,0.02988,0.00397,0.02799,8.13298,1.97661,0.26231,1.85127
0.29802,0.00037,0.00006,0.00042,0.0245,0.00395,0.02782,8.15789,1.63024,0.26305,1.85165
0.29893,0.00038,0.00006,0.00041,0.02534,0.00395,0.02766,8.18277,1.69652,0.26453,1.85203
0.29984,0.0003,0.00006,0.00041,0.02,0.00396,0.0275,8.20768,1.34711,0.2666,1.85241
0.30075,0.00046,0.00006,0.00041,0.03056,0.00396,0.02734,8.23259,2.07143,0.2681,1.85278
0.30166,0.00039,0.00006,0.00041,0.0259,0.00395,0.02718,8.2575,1.76597,0.26934,1.85316
0.30256,0.00034,0.00006,0.00041,0.02293,0.00391,0.02702,8.28238,1.57283,0.26844,1.85353
0.30347,0.00021,0.00006,0.0004,0.01411,0.00392,0.02686,8.30729,0.97383,0.27069,1.8539
0.30438,0.00045,0.00006,0.0004,0.03011,0.00391,0.02671,8.33218,2.0906,0.27126,1.85426
0.30529,0.0003,0.00006,0.0004,0.02007,0.00402,0.02656,8.35709,1.40154,0.28053,1.85463
0.3062,0.00044,0.00006,0.0004,0.02909,0.0041,0.0264,8.382,2.04412,0.28799,1.85499
0.30711,0.00033,0.00006,0.00039,0.02175,0.00413,0.02625,8.40688,1.53725,0.29208,1.85536
0.30802,0.00026,0.00006,0.00039,0.01767,0.00414,0.0261,8.43179,1.25629,0.29445,1.85572
0.30893,0.00032,0.00006,0.00039,0.02111,0.00421,0.02595,8.45667,1.50995,0.3011,1.85608
0.30984,0.00031,0.00006,0.00039,0.02096,0.00426,0.02581,8.48158,1.50764,0.30637,1.85643
0.31075,0.00027,0.00006,0.00038,0.01807,0.00431,0.02566,8.50647,1.30777,0.31173,1.85679
0.31166,0.00038,0.00006,0.00038,0.02507,0.00433,0.02552,8.53138,1.8249,0.31524,1.85714
0.31257,0.00046,0.00007,0.00038,0.03037,0.00435,0.02537,8.55626,2.22337,0.31872,1.85749
0.31348,0.00032,0.00007,0.00038,0.02118,0.00435,0.02523,8.58117,1.55939,0.32064,1.85783
0.31439,0.00038,0.00006,0.00038,0.02529,0.00428,0.02509,8.60605,1.87338,0.31691,1.85818
0.3153,0.0003,0.00006,0.00037,0.01994,0.00423,0.02495,8.63096,1.48571,0.31489,1.85852
0.31621,0.00036,0.00006,0.00037,0.02399,0.00417,0.02481,8.65585,1.79717,0.31273,1.85887
0.31712,0.00033,0.00006,0.00037,0.02203,0.00414,0.02467,8.68073,1.66029,0.31163,1.85921
0.31803,0.00041,0.00006,0.00037,0.02728,0.00408,0.02454,8.70564,2.06761,0.30902,1.85954
0.31894,0.0003,0.00006,0.00037,0.02001,0.00408,0.0244,8.73052,1.52519,0.31111,1.85988
0.31985,0.00035,0.00006,0.00036,0.02304,0.00407,0.02427,8.75543,1.76628,0.31179,1.86022
0.32076,0.00037,0.00006,0.00036,0.02473,0.00406,0.02413,8.78032,1.90623,0.31323,1.86055
0.32166,0.00036,0.00006,0.00036,0.02402,0.00405,0.024,8.8052,1.86196,0.31414,1.86088
0.32257,0.00027,0.00006,0.00036,0.01826,0.00404,0.02387,8.83011,1.42367,0.31525,1.86121
0.32348,0.00029,0.00006,0.00036,0.01963,0.004,0.02374,8.85499,1.53932,0.3134,1.86154
0.32439,0.00037,0.00006,0.00035,0.02489,0.004,0.02361,8.87987,1.96243,0.31548,1.86187
0.3253,0.00038,0.00006,0.00035,0.02566,0.00397,0.02348,8.90478,2.03467,0.31446,1.86219
0.32621,0.00031,0.00006,0.00035,0.02048,0.00399,0.02336,8.92967,1.63338,0.31838,1.86252
0.32712,0.00034,0.00006,0.00035,0.02254,0.00397,0.02323,8.95455,1.8075,0.31826,1.86284
0.32803,0.00025,0.00006,0.00035,0.01642,0.00399,0.02311,8.97943,1.32429,0.32172,1.86316
0.32894,0.0003,0.00006,0.00034,0.02003,0.00394,0.02298,9.00432,1.62431,0.31984,1.86347
0.32985,0.00037,0.00006,0.00034,0.02491,0.00395,0.02286,9.02923,2.03058,0.32167,1.86379
0.33076,0.0003,0.00006,0.00034,0.01971,0.00395,0.02274,9.05411,1.61587,0.32349,1.8641
0.33167,0.00031,0.00006,0.00034,0.02047,0.00395,0.02262,9.07899,1.68709,0.32551,1.86441
0.33258,0.00037,0.00006,0.00034,0.02437,0.00394,0.0225,9.10387,2.02016,0.32674,1.86472
0.33348,0.00047,0.00006,0.00034,0.03128,0.0039,0.02238,9.12876,2.60696,0.32541,1.86503
0.33439,0.00034,0.00006,0.00033,0.02283,0.00388,0.02226,9.15364,1.91264,0.32541,1.86533
0.3353,0.00032,0.00006,0.00033,0.02112,0.00387,0.02215,9.17852,1.77934,0.32582,1.86563
0.33621,0.00025,0.00006,0.00033,0.01641,0.0039,0.02203,9.20341,1.39003,0.33007,1.86593
0.33712,0.00035,0.00006,0.00033,0.02363,0.00388,0.02191,9.22829,2.01249,0.33026,1.86623
0.33803,0.00027,0.00006,0.00033,0.01769,0.00386,0.0218,9.25317,1.51451,0.33051,1.86653
0.33894,0.00032,0.00006,0.00033,0.02105,0.00382,0.02169,9.27805,1.81164,0.3285,1.86682
0.33985,0.00026,0.00006,0.00032,0.0174,0.00381,0.02157,9.30294,1.50619,0.32962,1.86712
0.34076,0.00037,0.00006,0.00032,0.02479,0.00381,0.02146,9.32782,2.15711,0.3316,1.86741
0.34166,0.00046,0.00006,0.00032,0.03037,0.00382,0.02135,9.3527,2.65684,0.3345,1.86769
0.34257,0.00033,0.00006,0.00032,0.02206,0.00388,0.02124,9.37759,1.93985,0.34104,1.86798
0.34348,0.00038,0.00006,0.00032,0.02521,0.00397,0.02113,9.40247,2.22908,0.35128,1.86827
0.34439,0.00039,0.00006,0.00032,0.02629,0.00404,0.02102,9.42735,2.33674,0.35872,1.86855
0.3453,0.00028,0.00006,0.00031,0.01886,0.00408,0.02092,9.45224,1.68485,0.36411,1.86883
0.34621,0.0003,0.00006,0.00031,0.01968,0.0041,0.02081,9.47712,1.76721,0.36811,1.86911
0.34712,0.00016,0.00006,0.00031,0.01084,0.00414,0.0207,9.502,0.97906,0.3738,1.86938
0.34803,0.00037,0.00006,0.00031,0.02473,0.00417,0.0206,9.52688,2.24415,0.37807,1.86965
0.34894,0.00041,0.00006,0.00031,0.02754,0.00418,0.0205,9.55174,2.51232,0.38112,1.86992
0.34985,0.00025,0.00006,0.00031,0.01653,0.00417,0.02039,9.57662,1.51577,0.38233,1.87019
0.35075,0.00019,0.00006,0.0003,0.01244,0.00416,0.02029,9.6015,1.14719,0.38354,1.87046
0.35166,0.00027,0.00006,0.0003,0.01799,0.00418,0.02019,9.62639,1.66702,0.38702,1.87072
0.35257,0.00033,0.00006,0.0003,0.02206,0.00422,0.02009,9.65124,2.05525,0.39288,1.87098
0.35348,0.00027,0.00006,0.0003,0.01803,0.00424,0.01999,9.67613,1.68779,0.397,1.87124
0.35439,0.00029,0.00006,0.0003,0.01939,0.0042,0.01989,9.70101,1.82499,0.39553,1.87149
0.3553,0.00026,0.00006,0.0003,0.01706,0.00422,0.01979,9.72589,1.61399,0.39964,1.87175
0.35621,0.0003,0.00006,0.0003,0.01999,0.00418,0.01969,9.75075,1.90053,0.39765,1.872
0.35712,0.00035,0.00006,0.00029,0.02349,0.00424,0.01959,9.77563,2.24514,0.4056,1.87225
0.35802,0.00024,0.00006,0.00029,0.01578,0.00427,0.0195,9.80051,1.51605,0.41026,1.8725
0.35893,0.00036,0.00006,0.00029,0.02406,0.00427,0.0194,9.82537,2.32312,0.41247,1.87275
0.35984,0.00035,0.00006,0.00029,0.02344,0.00424,0.0193,9.85025,2.2746,0.41129,1.87299
0.36075,0.00025,0.00006,0.00029,0.01643,0.00427,0.01921,9.87513,1.60216,0.41592,1.87324
0.36166,0.00018,0.00006,0.00029,0.01199,0.00423,0.01912,9.89999,1.17551,0.41494,1.87348
0.36257,0.00045,0.00006,0.00029,0.0298,0.00427,0.01902,9.92487,2.93573,0.4209,1.87372
0.36347,0.00036,0.00006,0.00028,0.02403,0.00432,0.01893,9.94973,2.37902,0.42768,1.87396
0.36438,0.0004,0.00006,0.00028,0.02673,0.00428,0.01884,9.97461,2.65985,0.42547,1.87419
0.36529,0.00021,0.00006,0.00028,0.01427,0.0043,0.01875,9.99947,1.42692,0.43044,1.87443
0.3662,0.00019,0.00006,0.00028,0.01239,0.00428,0.01866,10.02435,1.24499,0.43,1.87466
0.36711,0.00026,0.00006,0.00028,0.01739,0.00431,0.01857,10.04921,1.75612,0.435,1.87489
0.36802,0.00024,0.00006,0.00028,0.01608,0.00432,0.01848,10.07409,1.6315,0.43861,1.87512
0.36893,0.00024,0.00006,0.00028,0.01631,0.00433,0.01839,10.09894,1.66357,0.44124,1.87535
0.36983,0.00032,0.00006,0.00027,0.02121,0.00431,0.0183,10.1238,2.17357,0.44176,1.87558
0.37074,0.0003,0.00006,0.00027,0.01991,0.00433,0.01821,10.14868,2.0503,0.44636,1.8758
0.37165,0.00024,0.00006,0.00027,0.01589,0.0043,0.01813,10.17354,1.64456,0.4451,1.87603
0.37256,0.00028,0.00006,0.00027,0.01858,0.00433,0.01804,10.19839,1.93234,0.45044,1.87625
0.37347,0.00013,0.00006,0.00027,0.00887,0.00429,0.01795,10.22328,0.9271,0.44857,1.87647
0.37438,0.00032,0.00007,0.00027,0.02133,0.00435,0.01787,10.24813,2.23971,0.45711,1.87669
0.37528,0.00044,0.00007,0.00027,0.02962,0.00435,0.01778,10.27299,3.12639,0.45889,1.87691
0.37619,0.00023,0.00007,0.00027,0.01558,0.00437,0.0177,10.29787,1.65209,0.46309,1.87713
0.3771,0.00017,0.00006,0.00026,0.01155,0.00431,0.01762,10.32273,1.23035,0.45919,1.87734
0.37801,0.00024,0.00006,0.00026,0.01593,0.00433,0.01754,10.34758,1.70569,0.46388,1.87756
0.37892,0.00034,0.00007,0.00026,0.02237,0.00439,0.01745,10.37244,2.40671,0.47194,1.87777
0.37983,0.00018,0.00007,0.00026,0.01223,0.00438,0.01737,10.39732,1.32258,0.47381,1.87798
0.38073,0.00016,0.00007,0.00026,0.01056,0.00438,0.01729,10.42217,1.14713,0.4755,1.8782
0.38164,0.00021,0.00007,0.00026,0.0141,0.00436,0.01721,10.44703,1.53855,0.47607,1.87841
0.38255,0.00022,0.00007,0.00026,0.01466,0.00435,0.01713,10.47189,1.60808,0.47657,1.87862
0.38346,0.00019,0.00007,0.00026,0.01298,0.00437,0.01705,10.49674,1.42983,0.48186,1.87882
0.38437,0.00027,0.00007,0.00025,0.01772,0.0044,0.01697,10.5216,1.9615,0.48715,1.87903
0.38527,0.00029,0.00007,0.00025,0.01913,0.00439,0.0169,10.54645,2.12808,0.48802,1.87923
0.38618,0.00024,0.00007,0.00025,0.01621,0.0044,0.01682,10.57131,1.81163,0.49138,1.87944
0.38709,0.00023,0.00007,0.00025,0.01512,0.00435,0.01674,10.59619,1.6979,0.48818,1.87964
0.388,0.00028,0.00007,0.00025,0.01838,0.00435,0.01666,10.62105,2.07377,0.49095,1.87984
0.38891,0.00028,0.00007,0.00025,0.01848,0.00437,0.01659,10.64587,2.09456,0.49477,1.88004
0.38982,0.00034,0.00007,0.00025,0.02248,0.00438,0.01651,10.67076,2.55995,0.49843,1.88024
0.39072,0.0003,0.00007,0.00025,0.01979,0.00435,0.01644,10.69558,2.26444,0.49719,1.88044
0.39163,0.00031,0.00007,0.00025,0.02085,0.00437,0.01636,10.72044,2.39574,0.50218,1.88064
0.39254,0.00032,0.00006,0.00024,0.02113,0.00433,0.01629,10.7453,2.43997,0.50008,1.88084
0.39345,0.00039,0.00006,0.00024,0.0259,0.00433,0.01622,10.77015,3.00479,0.50276,1.88103
0.39435,0.00028,0.00007,0.00024,0.01884,0.00434,0.01614,10.79501,2.19537,0.50571,1.88123
0.39526,0.00036,0.00007,0.00024,0.02423,0.00438,0.01607,10.81986,2.83717,0.51252,1.88143
0.39617,0.00018,0.00007,0.00024,0.01198,0.00441,0.016,10.84472,1.40846,0.51833,1.88162
0.39708,0.00016,0.00007,0.00024,0.01071,0.00437,0.01593,10.86957,1.26537,0.51687,1.88182
0.39798,0.00026,0.00007,0.00024,0.01749,0.00435,0.01586,10.8944,2.07553,0.51622,1.88201
0.39889,0.00015,0.00007,0.00024,0.00994,0.00436,0.01579,10.91926,1.18523,0.51927,1.8822
0.3998,0.00023,0.00007,0.00024,0.01533,0.0044,0.01572,10.94411,1.83597,0.52707,1.8824
0.40071,0.00017,0.00007,0.00023,0.01156,0.0044,0.01565,10.96897,1.39055,0.52937,1.88259
0.40162,0.00029,0.00007,0.00023,0.01922,0.00438,0.01558,10.99382,2.3236,0.52909,1.88278
0.40252,0.00021,0.00007,0.00023,0.01429,0.00437,0.01551,11.01865,1.73445,0.53067,1.88298
0.40343,0.00023,0.00007,0.00023,0.01549,0.00437,0.01544,11.04351,1.88933,0.53305,1.88317
0.40434,0.00017,0.00007,0.00023,0.01102,0.00437,0.01537,11.06836,1.34993,0.5354,1.88336
0.40525,0.00032,0.00007,0.00023,0.02167,0.00442,0.01531,11.09319,2.66708,0.54392,1.88355
0.40615,0.00028,0.00007,0.00023,0.01873,0.00441,0.01524,11.11805,2.31473,0.54532,1.88374
0.40706,0.0003,0.00007,0.00023,0.02,0.00441,0.01517,11.14287,2.48272,0.54712,1.88393
0.40797,0.00029,0.00007,0.00023,0.01917,0.0044,0.01511,11.16773,2.39068,0.54853,1.88412
0.40888,0.00026,0.00007,0.00023,0.0175,0.00441,0.01504,11.19259,2.19245,0.55211,1.88432
0.40979,0.00022,0.00007,0.00022,0.0145,0.0044,0.01498,11.21741,1.82394,0.55326,1.88451
0.41069,0.00022,0.00007,0.00022,0.01441,0.00444,0.01491,11.24227,1.82112,0.56083,1.8847
0.4116,0.00018,0.00007,0.00022,0.01196,0.00443,0.01485,11.2671,1.51782,0.56208,1.88489
0.41251,0.00027,0.00007,0.00022,0.01833,0.00443,0.01478,11.29195,2.33766,0.56543,1.88508
0.41341,0.00027,0.00007,0.00022,0.0179,0.00443,0.01472,11.31678,2.29288,0.56739,1.88527
0.41432,0.0002,0.00007,0.00022,0.01351,0.00439,0.01466,11.34164,1.73771,0.56529,1.88546
0.41523,0.0002,0.00007,0.00022,0.01321,0.00442,0.0146,11.36646,1.70733,0.5712,1.88566
0.41614,0.00025,0.00007,0.00022,0.0165,0.00443,0.01453,11.39129,2.14055,0.57433,1.88585
0.41704,0.00019,0.00007,0.00022,0.013,0.00445,0.01447,11.41615,1.69393,0.5796,1.88604
0.41795,0.00023,0.00007,0.00022,0.01547,0.00445,0.01441,11.44098,2.02457,0.58244,1.88623
0.41886,0.00024,0.00007,0.00022,0.0161,0.00443,0.01435,11.4658,2.11699,0.58289,1.88643
0.41977,0.00007,0.00007,0.00021,0.00461,0.0044,0.01429,11.49066,0.60934,0.58126,1.88662
0.42067,0.00021,0.00007,0.00021,0.01396,0.00444,0.01423,11.51549,1.85093,0.58859,1.88681
0.42158,0.00026,0.00007,0.00021,0.01752,0.00445,0.01417,11.54032,2.33391,0.59211,1.887
0.42249,0.00023,0.00007,0.00021,0.01541,0.00448,0.01411,11.56517,2.06098,0.5992,1.8872
0.4234,0.00016,0.00007,0.00021,0.01087,0.00445,0.01405,11.59,1.45975,0.59771,1.88739
0.4243,0.00021,0.00007,0.00021,0.0139,0.00442,0.01399,11.61483,1.87528,0.59566,1.88758
0.42521,0.00022,0.00007,0.00021,0.01482,0.0044,0.01393,11.63966,2.00815,0.5956,1.88778
0.42612,0.00029,0.00007,0.00021,0.01907,0.00445,0.01388,11.66448,2.59485,0.605,1.88797
0.42702,0.00019,0.00007,0.00021,0.01268,0.00449,0.01382,11.68934,1.73222,0.6132,1.88816
0.42793,0.0002,0.00007,0.00021,0.0136,0.00448,0.01376,11.71417,1.86569,0.61509,1.88835
0.42884,0.00014,0.00007,0.00021,0.0095,0.00446,0.0137,11.739,1.30957,0.61423,1.88855
0.42975,0.00028,0.00007,0.0002,0.01858,0.00444,0.01365,11.76382,2.57099,0.61418,1.88874
0.43065,0.00022,0.00007,0.0002,0.015,0.00458,0.01359,11.78865,2.08472,0.63611,1.88893
0.43156,0.0002,0.00007,0.0002,0.01319,0.00477,0.01354,11.81348,1.84124,0.66628,1.88912
0.43247,0.0001,0.00007,0.0002,0.00648,0.00488,0.01348,11.83831,0.90749,0.68399,1.88931
0.43337,0.00025,0.00007,0.0002,0.01642,0.00496,0.01343,11.86314,2.31132,0.69761,1.88949
0.43428,0.00032,0.00008,0.0002,0.02111,0.00508,0.01337,11.88796,2.98293,0.71736,1.88968
0.43519,0.00027,0.00008,0.0002,0.01802,0.00516,0.01332,11.91279,2.55701,0.73208,1.88986
0.4361,0.00018,0.00008,0.0002,0.01207,0.00528,0.01326,11.93762,1.72064,0.7524,1.89005
0.437,0.00018,0.00008,0.0002,0.01203,0.00533,0.01321,11.96245,1.72153,0.76271,1.89023
0.43791,0.0002,0.00008,0.0002,0.01316,0.00542,0.01316,11.98728,1.89068,0.77897,1.89041
0.43882,0.00028,0.00008,0.0002,0.01858,0.00545,0.0131,12.01211,2.68062,0.78678,1.89058
0.43972,0.00026,0.00008,0.0002,0.0171,0.00558,0.01305,12.03691,2.47756,0.80837,1.89076
0.44063,0.00031,0.00008,0.00019,0.02054,0.00563,0.013,12.06173,2.98831,0.8196,1.89093
0.44154,0.00017,0.00009,0.00019,0.01149,0.00574,0.01295,12.08656,1.67863,0.8381,1.89111
0.44244,0.00006,0.00009,0.00019,0.00413,0.00579,0.01289,12.11139,0.60524,0.84983,1.89128
0.44335,0.00021,0.00009,0.00019,0.01381,0.00593,0.01284,12.13622,2.03411,0.87355,1.89145
0.44426,0.00038,0.00009,0.00019,0.02565,0.00598,0.01279,12.16102,3.79377,0.88459,1.89161
0.44516,0.00036,0.00009,0.00019,0.024,0.00603,0.01274,12.18585,3.5633,0.89599,1.89178
0.44607,0.00025,0.00009,0.00019,0.01677,0.0061,0.01269,12.21068,2.49972,0.90951,1.89194
0.44698,0.00024,0.00009,0.00019,0.01571,0.00614,0.01264,12.23548,2.35249,0.9186,1.89211
0.44788,0.00018,0.0001,0.00019,0.01188,0.00639,0.01259,12.2603,1.78524,0.9612,1.89227
0.44879,-0.00008,0.0001,0.00019,-0.00547,0.00643,0.01254,12.28513,-0.82529,0.96969,1.89244
0.4497,0.00032,0.0001,0.00019,0.02121,0.0065,0.01249,12.30993,3.21379,0.98458,1.8926
0.4506,0.00007,0.0001,0.00019,0.00491,0.00646,0.01244,12.33476,0.74722,0.98308,1.89276
0.45151,0.00029,0.0001,0.00019,0.01965,0.00651,0.01239,12.35956,3.00122,0.99469,1.89293
0.45242,0.00015,0.0001,0.00019,0.01021,0.0065,0.01234,12.38439,1.56551,0.99761,1.89309
0.45332,0.00037,0.0001,0.00018,0.02467,0.00672,0.01229,12.40919,3.79919,1.0347,1.89325
0.45423,0.00011,0.0001,0.00018,0.0071,0.00671,0.01225,12.43402,1.09822,1.03788,1.89342
0.45514,0.00019,0.0001,0.00018,0.01293,0.00676,0.0122,12.45882,2.00629,1.04978,1.89358
0.45604,0.00028,0.0001,0.00018,0.01844,0.00665,0.01215,12.48365,2.87331,1.03616,1.89375
0.45695,0.00028,0.0001,0.00018,0.01844,0.00679,0.0121,12.50845,2.88505,1.06198,1.89391
0.45785,0.00006,0.0001,0.00018,0.00395,0.00685,0.01206,12.53325,0.62076,1.07653,1.89408
0.45876,0.00025,0.00011,0.00018,0.01639,0.00703,0.01201,12.55808,2.58513,1.10945,1.89425
0.45967,0.00019,0.0001,0.00018,0.01295,0.00697,0.01197,12.58288,2.05071,1.10276,1.89441
0.46057,0.00016,0.00011,0.00018,0.01084,0.00701,0.01192,12.60771,1.72253,1.11364,1.89458
0.46148,0.00009,0.0001,0.00018,0.00627,0.00689,0.01187,12.63251,0.9999,1.10029,1.89475
0.46239,0.00017,0.0001,0.00018,0.01127,0.00692,0.01183,12.65731,1.8054,1.10862,1.89491
0.46329,0.00026,0.00011,0.00018,0.01742,0.00706,0.01178,12.68211,2.80183,1.13485,1.89508
0.4642,0.00015,0.00011,0.00018,0.01028,0.00711,0.01174,12.70694,1.65954,1.14754,1.89524
0.4651,-0.00006,0.00011,0.00018,-0.00401,0.00719,0.01169,12.73174,-0.6503,1.16567,1.8954
0.46601,0.00017,0.00011,0.00017,0.01104,0.00715,0.01165,12.75654,1.79599,1.16278,1.89556
0.46692,0.00029,0.00011,0.00017,0.01949,0.00709,0.0116,12.78134,3.18316,1.15811,1.89571
0.46782,0.00023,0.00011,0.00017,0.01531,0.00716,0.01156,12.80614,2.51086,1.17474,1.89586
0.46873,0.00013,0.00011,0.00017,0.0089,0.0074,0.01152,12.83097,1.46452,1.21753,1.89601
0.46964,0.00003,0.00011,0.00017,0.0019,0.00739,0.01147,12.85574,0.3132,1.22077,1.89615
0.47054,0.00023,0.00011,0.00017,0.01502,0.00745,0.01143,12.88057,2.49137,1.23568,1.89629
0.47145,0.00014,0.00011,0.00017,0.00921,0.00732,0.01139,12.90537,1.53457,1.2183,1.89643
0.47235,0.00017,0.00011,0.00017,0.01122,0.00736,0.01134,12.93017,1.8762,1.23034,1.89655
0.47326,0.00013,0.00011,0.00017,0.0086,0.00744,0.0113,12.95497,1.44335,1.24863,1.89667
0.47417,0.00009,0.00012,0.00017,0.00574,0.0078,0.01126,12.97977,0.96705,1.31341,1.89679
0.47507,0.00027,0.00012,0.00017,0.01785,0.00776,0.01122,13.00457,3.01821,1.31204,1.8969
0.47598,0.00028,0.00012,0.00017,0.01841,0.00777,0.01117,13.02935,3.12482,1.31901,1.897
0.47688,0.00024,0.00012,0.00017,0.01618,0.00772,0.01113,13.05415,2.75809,1.31626,1.89709
0.47779,0.00026,0.00012,0.00017,0.01719,0.00779,0.01109,13.07895,2.94051,1.33208,1.89717
0.47869,0.00023,0.00012,0.00017,0.01529,0.00792,0.01105,13.10375,2.62522,1.36065,1.89725
0.4796,0.00018,0.00012,0.00017,0.01173,0.00807,0.01101,13.12855,2.02166,1.39089,1.89732
0.48051,-0.00011,0.00012,0.00016,-0.00743,0.00809,0.01097,13.15335,-1.28602,1.39989,1.89738
0.48141,0.00001,0.00012,0.00016,0.00089,0.00809,0.01093,13.17815,0.15412,1.40503,1.89743
0.48232,0.00005,0.00012,0.00016,0.00317,0.00818,0.01089,13.20292,0.55205,1.42578,1.89747
0.48322,0.00028,0.00012,0.00016,0.01882,0.00819,0.01084,13.22773,3.29348,1.43364,1.89751
0.48413,-0.00013,0.00012,0.00016,-0.0087,0.00823,0.0108,13.25253,-1.52858,1.44568,1.89753
0.48504,0.00028,0.00013,0.00016,0.01858,0.00835,0.01076,13.27733,3.27511,1.47195,1.89755
0.48594,0.00013,0.00013,0.00016,0.00899,0.00847,0.01072,13.3021,1.5909,1.4981,1.89756
0.48685,0.00003,0.00013,0.00016,0.00208,0.00854,0.01068,13.3269,0.36941,1.51595,1.89755
0.48775,0.00014,0.00013,0.00016,0.00936,0.00853,0.01064,13.35167,1.66902,1.52107,1.89754
0.48866,0.00013,0.00013,0.00016,0.0089,0.00855,0.0106,13.37648,1.59243,1.52954,1.89752
0.48956,0.00016,0.00013,0.00016,0.01065,0.00876,0.01057,13.40125,1.91265,1.57283,1.89749
0.49047,0,0.00013,0.00016,0.00009,0.00879,0.01053,13.42605,0.01613,1.58475,1.89744
0.49138,0.00023,0.00013,0.00016,0.01565,0.00892,0.01049,13.45085,2.83119,1.61392,1.89739
0.49228,0.00031,0.00013,0.00016,0.02047,0.00892,0.01045,13.47562,3.71714,1.61934,1.89732
0.49318,0.0004,0.00014,0.00016,0.02682,0.00904,0.01041,13.5004,4.88763,1.64821,1.89725
0.49409,0.00011,0.00014,0.00016,0.0073,0.00913,0.01037,13.5252,1.33471,1.66955,1.89716
0.495,0.00037,0.00014,0.00015,0.02455,0.00921,0.01033,13.54997,4.50663,1.69172,1.89706
0.4959,0.00015,0.00014,0.00015,0.01024,0.00928,0.01029,13.57477,1.8877,1.71013,1.89695
0.49681,-0.00005,0.00014,0.00015,-0.00356,0.00943,0.01026,13.59955,-0.65817,1.74458,1.89683
0.49771,-0.00011,0.00014,0.00015,-0.00746,0.00938,0.01022,13.62435,-1.38426,1.74022,1.89669
0.49862,0.00016,0.00014,0.00015,0.01068,0.00955,0.01018,13.64912,1.98925,1.77953,1.89654
0.49952,0.00037,0.00014,0.00015,0.02453,0.00966,0.01014,13.67389,4.5867,1.80541,1.89638
0.50043,0.00043,0.00015,0.00015,0.02848,0.00982,0.0101,13.69867,5.34476,1.84223,1.89621
0.50133,0.0002,0.00015,0.00015,0.01309,0.00988,0.01007,13.72347,2.4644,1.8612,1.89602
0.50224,0.00006,0.00015,0.00015,0.00417,0.00985,0.01003,13.74824,0.78809,1.86128,1.89582
0.50314,0.00006,0.00015,0.00015,0.00408,0.01,0.00999,13.77301,0.77445,1.89683,1.8956
0.50405,0.00006,0.00015,0.00015,0.00383,0.01022,0.00996,13.79779,0.73002,1.94542,1.89537
0.50495,0.0001,0.00015,0.00015,0.00637,0.01023,0.00992,13.82256,1.21673,1.95525,1.89513
0.50586,0.00032,0.00016,0.00015,0.02167,0.01038,0.00988,13.84733,4.15521,1.99045,1.89487
0.50676,0.00015,0.00016,0.00015,0.01031,0.01044,0.00985,13.87211,1.98435,2.00853,1.89459
0.50767,-0.0002,0.00016,0.00015,-0.0133,0.01067,0.00981,13.89691,-2.56777,2.06142,1.8943
0.50857,-0.00003,0.00016,0.00015,-0.00201,0.01089,0.00977,13.92168,-0.38972,2.11085,1.89399
0.50948,0.00018,0.00016,0.00015,0.01221,0.01087,0.00974,13.94645,2.37393,2.11401,1.89367
0.51038,0.00006,0.00017,0.00015,0.00402,0.01104,0.0097,13.97123,0.78385,2.15519,1.89332
0.51129,0.00007,0.00017,0.00014,0.00434,0.01103,0.00966,13.996,0.84981,2.16044,1.89297
0.51219,0.00031,0.00017,0.00014,0.02066,0.0113,0.00963,14.02075,4.06074,2.22126,1.89259
0.5131,0.00017,0.00017,0.00014,0.01132,0.01148,0.00959,14.04552,2.23249,2.26384,1.89219
0.514,-0.00011,0.00017,0.00014,-0.00723,0.01156,0.00956,14.07029,-1.43087,2.2879,1.89178
0.51491,0.00064,0.00018,0.00014,0.04235,0.01176,0.00952,14.09507,8.41353,2.33729,1.89135
0.51581,0.00008,0.00018,0.00014,0.00525,0.01196,0.00948,14.11984,1.04717,2.38404,1.8909
0.51672,0.00056,0.00018,0.00014,0.03765,0.01228,0.00945,14.14461,7.53303,2.45766,1.89043
0.51762,0,0.00019,0.00014,0.00013,0.01237,0.00941,14.16939,0.0252,2.48338,1.88994
0.51853,0.00042,0.00019,0.00014,0.02831,0.01256,0.00938,14.19413,5.70278,2.52956,1.88944
0.51943,-0.0001,0.00019,0.00014,-0.00658,0.01257,0.00934,14.21891,-1.32944,2.54169,1.88891
0.52034,0.00042,0.00019,0.00014,0.02802,0.01295,0.00931,14.24368,5.68481,2.62645,1.88837
0.52124,0.0002,0.0002,0.00014,0.01303,0.01312,0.00927,14.26845,2.6527,2.67057,1.8878
0.52215,0.00012,0.0002,0.00014,0.00823,0.01344,0.00924,14.2932,1.68044,2.74496,1.88722
0.52305,-0.00006,0.0002,0.00014,-0.0038,0.01358,0.0092,14.31797,-0.77945,2.78424,1.88661
0.52396,0.00055,0.00021,0.00014,0.03645,0.01387,0.00917,14.34272,7.49766,2.85422,1.88599