File: 2025/starling_2025/figures/experimental_comparison/saxs_scattering/experiment/ibb/mff_out.csv
#File Plotted Below: ibb.dat,,,,,,,,,,
,,,,,,,,,,
    #Fit from 0.01-0.25 with polymer MFF,,,,,,,,,,
#Initial search parameter for I0 = 1159.17,,,,,,,,,,
#Initial search parameter for Rg = 30,,,,,,,,,,
#Initial search parameter for nu = 0.499881,,,,,,,,,,
#BestFit for I0 = 1193.46 +- 8.84450,,,,,,,,,,
#BestFit for I(0)/I0 = 1.00000 +- 0.00741,,,,,,,,,,
#BestFit for Rg = 33.79204 +- 0.15398,,,,,,,,,,
#BestFit for nu = 0.55645 +- 0.00109,,,,,,,,,,
#BestFit reduced chisquared = 1.29704,,,,,,,,,,
#-------------,,,,,,,,,,
#-------------,,,,,,,,,,
,,,,,,,,,,
    #q,I(q),Error,fit,I(q)/I0,Error/I0,fit/I0,qRg,((qRg)^2)I(q)/I0,((qRg)^2)*Error/I0,((qRg)^2)*fit/I0
0.00433,1192.566,402.3376,1186.16,0.99925,0.33712,0.99388,0.14642,0.02142,0.00723,0.02131
0.00512,1400.769,272.9443,1182.71,1.17371,0.2287,0.99099,0.17309,0.03517,0.00685,0.02969
0.00591,1018.523,199.2729,1178.65,0.85342,0.16697,0.9876,0.19977,0.03406,0.00666,0.03941
0.0067,1283.001,158.0003,1174.01,1.07503,0.13239,0.9837,0.22644,0.05512,0.00679,0.05044
0.00749,1016.132,123.0706,1168.79,0.85142,0.10312,0.97933,0.25311,0.05455,0.00661,0.06274
0.00828,1102.229,108.1876,1163.02,0.92356,0.09065,0.9745,0.27979,0.0723,0.0071,0.07628
0.00907,1177.297,99.23223,1156.724,0.98646,0.08315,0.96922,0.30646,0.09265,0.00781,0.09103
0.00986,1148.143,89.3611,1149.91,0.96203,0.07488,0.96351,0.33313,0.10676,0.00831,0.10693
0.01065,1229.631,82.18045,1142.6,1.03031,0.06886,0.95738,0.3598,0.13338,0.00891,0.12394
0.01144,1219.222,74.98266,1134.81,1.02159,0.06283,0.95086,0.38648,0.15259,0.00938,0.14203
0.01223,1214.555,74.27361,1126.56,1.01768,0.06223,0.94395,0.41315,0.17371,0.01062,0.16113
0.01302,1018.93,67.59132,1117.87,0.85376,0.05663,0.93667,0.43982,0.16516,0.01096,0.18119
0.0138,1148.869,65.78165,1108.76,0.96264,0.05512,0.92903,0.4665,0.20949,0.01199,0.20218
0.01459,1115.174,63.33091,1099.25,0.93441,0.05307,0.92106,0.49317,0.22726,0.01291,0.22402
0.01538,1081.934,63.56426,1089.36,0.90655,0.05326,0.91277,0.51984,0.24498,0.01439,0.24666
0.01617,987.2002,62.99009,1079.09,0.82718,0.05278,0.90417,0.54652,0.24706,0.01576,0.27006
0.01696,986.1255,60.48251,1068.48,0.82628,0.05068,0.89528,0.57319,0.27147,0.01665,0.29414
0.01775,1000.359,58.53875,1057.55,0.8382,0.04905,0.88612,0.59986,0.30161,0.01765,0.31886
0.01854,1060.962,60.16763,1046.3,0.88898,0.05041,0.87669,0.62653,0.34897,0.01979,0.34414
0.01933,1073.791,59.72844,1034.76,0.89973,0.05005,0.86702,0.65321,0.3839,0.02135,0.36995
0.02012,979.4445,57.69269,1022.94,0.82068,0.04834,0.85713,0.67988,0.37935,0.02235,0.3962
0.02091,1060.894,56.74148,1010.88,0.88892,0.04754,0.84702,0.70655,0.44377,0.02373,0.42285
0.0217,1055.171,56.4754,998.576,0.88413,0.04732,0.83671,0.73323,0.47533,0.02544,0.44984
0.02249,910.6716,53.45204,986.0573,0.76305,0.04479,0.82622,0.7599,0.44063,0.02586,0.4771
0.02328,971.166,54.3376,973.34,0.81374,0.04553,0.81556,0.78657,0.50346,0.02817,0.50459
0.02407,886.0838,51.76708,960.442,0.74245,0.04338,0.80476,0.81325,0.49104,0.02869,0.53225
0.02486,897.726,51.1321,947.3842,0.75221,0.04284,0.79381,0.83992,0.53066,0.03022,0.56001
0.02564,889.6615,50.7753,934.184,0.74545,0.04254,0.78275,0.86659,0.55982,0.03195,0.58784
0.02643,820.1265,49.24857,920.858,0.68719,0.04127,0.77159,0.89327,0.54833,0.03293,0.61567
0.02722,953.0626,49.71962,907.428,0.79857,0.04166,0.76034,0.91994,0.67583,0.03526,0.64347
0.02801,910.5089,48.50572,893.911,0.76292,0.04064,0.74901,0.94661,0.68363,0.03642,0.67117
0.0288,861.8078,47.63749,880.325,0.72211,0.03992,0.73763,0.97329,0.68405,0.03781,0.69875
0.02959,820.4518,47.34401,866.691,0.68746,0.03967,0.7262,0.99996,0.6874,0.03967,0.72614
0.03038,868.7714,45.97462,853.0243,0.72795,0.03852,0.71475,1.02663,0.76724,0.0406,0.75333
0.03117,858.0761,45.45108,839.338,0.71898,0.03808,0.70328,1.05331,0.79768,0.04225,0.78026
0.03196,678.8121,43.66388,825.646,0.56878,0.03659,0.69181,1.07998,0.6634,0.04267,0.8069
0.03275,814.864,44.71647,811.959,0.68278,0.03747,0.68034,1.10665,0.83618,0.04589,0.8332
0.03354,702.9419,42.46984,798.287,0.589,0.03559,0.66889,1.13333,0.75653,0.04571,0.85914
0.03433,719.2318,42.33631,784.646,0.60265,0.03547,0.65746,1.16,0.81092,0.04773,0.88467
0.03512,758.3917,42.53074,771.047,0.63546,0.03564,0.64606,1.18667,0.89484,0.05018,0.90978
0.03591,751.4639,42.10268,757.498,0.62965,0.03528,0.63471,1.21335,0.92698,0.05194,0.93443
0.0367,725.5544,40.97999,744.015,0.60794,0.03434,0.62341,1.24002,0.9348,0.0528,0.95859
0.03748,803.2043,42.9497,730.61,0.67301,0.03599,0.61218,1.26669,1.07984,0.05774,0.98225
0.03827,738.1659,43.17337,717.293,0.61851,0.03618,0.60102,1.29336,1.03464,0.06051,1.00538
0.03906,679.3437,43.65924,704.0749,0.56922,0.03658,0.58995,1.32004,0.99187,0.06374,1.02798
0.03985,692.6126,43.81561,690.971,0.58034,0.03671,0.57897,1.34671,1.05252,0.06658,1.05003
0.04064,718.3313,44.04499,677.992,0.60189,0.03691,0.56809,1.37338,1.13527,0.06961,1.07152
0.04143,637.0776,43.58952,665.147,0.53381,0.03652,0.55733,1.40006,1.04635,0.07159,1.09245
0.04222,525.5708,43.00005,652.452,0.44038,0.03603,0.54669,1.42673,0.89641,0.07334,1.11282
0.04301,600.6219,41.74684,639.9179,0.50326,0.03498,0.53619,1.4534,1.06308,0.07389,1.13263
0.0438,613.2131,39.71787,627.554,0.51381,0.03328,0.52583,1.48008,1.12557,0.0729,1.1519
0.04459,635.4073,20.26736,615.376,0.53241,0.01698,0.51562,1.50675,1.20873,0.03855,1.17062
0.04538,633.5448,20.06484,603.39,0.53085,0.01681,0.50558,1.53342,1.24823,0.03953,1.18882
0.04617,598.2194,19.5778,591.597,0.50125,0.0164,0.4957,1.5601,1.21999,0.03993,1.20649
0.04696,590.1272,19.37085,579.9989,0.49447,0.01623,0.48598,1.58677,1.24499,0.04087,1.22362
0.04775,542.4541,18.51941,568.595,0.45452,0.01552,0.47643,1.61344,1.18321,0.04039,1.24023
0.04854,571.2152,18.74276,557.383,0.47862,0.0157,0.46703,1.64012,1.28749,0.04225,1.25631
0.04932,577.7234,18.79191,546.366,0.48408,0.01575,0.4578,1.66679,1.34485,0.04374,1.27186
0.05011,567.3192,18.33409,535.544,0.47536,0.01536,0.44873,1.69346,1.36324,0.04406,1.28688
0.0509,547.6332,18.51489,524.915,0.45886,0.01551,0.43983,1.72014,1.35771,0.0459,1.30139
0.05169,491.6055,18.30534,514.482,0.41192,0.01534,0.43109,1.74681,1.2569,0.0468,1.31539
0.05248,518.5763,18.75451,504.243,0.43452,0.01571,0.42251,1.77348,1.36665,0.04943,1.32888
0.05327,501.9161,18.58311,494.197,0.42056,0.01557,0.41409,1.80016,1.36284,0.05046,1.34188
0.05406,484.755,18.07838,484.347,0.40618,0.01515,0.40584,1.82683,1.35553,0.05055,1.35439
0.05485,477.8541,17.42303,474.692,0.40039,0.0146,0.39775,1.8535,1.37554,0.05015,1.36644
0.05564,489.3758,17.0966,465.2312,0.41005,0.01433,0.38982,1.88018,1.44955,0.05064,1.37803
0.05643,472.2963,17.00721,455.966,0.39574,0.01425,0.38205,1.90685,1.43893,0.05182,1.38918
0.05722,425.2639,16.5062,446.896,0.35633,0.01383,0.37446,1.93352,1.33214,0.05171,1.3999
0.05801,440.042,16.13432,438.0208,0.36871,0.01352,0.36702,1.9602,1.41673,0.05194,1.41022
0.0588,455.989,16.40656,429.342,0.38207,0.01375,0.35975,1.98687,1.50829,0.05427,1.42015
0.05959,436.7986,16.13932,420.8578,0.36599,0.01352,0.35264,2.01354,1.48387,0.05483,1.42971
0.06038,409.878,15.89182,412.5678,0.34344,0.01332,0.34569,2.04021,1.42955,0.05543,1.43893
0.06116,425.2848,15.99666,404.467,0.35635,0.0134,0.3389,2.06689,1.52232,0.05726,1.4478
0.06195,420.7625,15.89103,396.5547,0.35256,0.01332,0.33227,2.09356,1.54526,0.05836,1.45635
0.06274,403.998,6.45814,388.826,0.33851,0.00541,0.3258,2.12023,1.52173,0.02433,1.46458
0.06353,396.118,6.31235,381.2759,0.33191,0.00529,0.31947,2.14691,1.52983,0.02438,1.47251
0.06432,380.188,6.21974,373.904,0.31856,0.00521,0.31329,2.17358,1.50502,0.02462,1.48014
0.06511,376.465,6.20865,366.705,0.31544,0.0052,0.30726,2.20025,1.52708,0.02518,1.48749
0.0659,362.303,6.08797,359.6747,0.30357,0.0051,0.30137,2.22693,1.50549,0.0253,1.49456
0.06669,361.847,6.00816,352.812,0.30319,0.00503,0.29562,2.2536,1.53982,0.02557,1.50137
0.06748,337.054,5.90035,346.112,0.28242,0.00494,0.29001,2.28027,1.46847,0.02571,1.50793
0.06827,349.596,5.93377,339.571,0.29293,0.00497,0.28453,2.30695,1.55896,0.02646,1.51425
0.06906,333.704,5.83473,333.186,0.27961,0.00489,0.27918,2.33362,1.5227,0.02662,1.52033
0.06985,328.334,5.76628,326.954,0.27511,0.00483,0.27396,2.36029,1.53264,0.02692,1.5262
0.07064,329.625,5.73431,320.871,0.27619,0.0048,0.26886,2.38696,1.57364,0.02738,1.53185
0.07143,323.624,5.665,314.933,0.27117,0.00475,0.26388,2.41364,1.57971,0.02765,1.53729
0.07222,320.608,5.62691,309.139,0.26864,0.00471,0.25903,2.44031,1.59977,0.02808,1.54254
0.073,307.727,5.52843,303.482,0.25784,0.00463,0.25429,2.46698,1.56925,0.02819,1.5476
0.07379,305.509,5.46339,297.961,0.25599,0.00458,0.24966,2.49366,1.59181,0.02847,1.55248
0.07458,296.842,5.41492,292.572,0.24872,0.00454,0.24515,2.52033,1.57991,0.02882,1.55718
0.07537,280.154,5.31437,287.3114,0.23474,0.00445,0.24074,2.547,1.52282,0.02889,1.56173
0.07616,280.503,5.27519,282.177,0.23503,0.00442,0.23644,2.57368,1.55682,0.02928,1.56611
0.07695,279.199,5.21429,277.167,0.23394,0.00437,0.23224,2.60035,1.58187,0.02954,1.57035
0.07774,280.802,5.34686,272.276,0.23528,0.00448,0.22814,2.62702,1.62376,0.03092,1.57445
0.07853,265.957,5.41125,267.503,0.22285,0.00453,0.22414,2.6537,1.5693,0.03193,1.57842
0.07932,249.936,5.29221,262.845,0.20942,0.00443,0.22024,2.68037,1.50456,0.03186,1.58227
0.08011,258.971,5.37489,258.298,0.21699,0.0045,0.21643,2.70704,1.59014,0.033,1.586
0.0809,255.14,5.22992,253.86,0.21378,0.00438,0.21271,2.73372,1.59764,0.03275,1.58962
0.08169,248.896,5.07313,249.529,0.20855,0.00425,0.20908,2.76039,1.5891,0.03239,1.59314
0.08248,249.789,4.99721,245.3,0.2093,0.00419,0.20554,2.78706,1.62577,0.03252,1.59656
0.08327,243.742,4.93704,241.173,0.20423,0.00414,0.20208,2.81373,1.61692,0.03275,1.59988
0.08406,230.361,4.81068,237.143,0.19302,0.00403,0.1987,2.84041,1.55727,0.03252,1.60311
0.08484,238.831,4.87412,233.207,0.20012,0.00408,0.1954,2.86708,1.64499,0.03357,1.60625
0.08563,225.861,4.76767,229.363,0.18925,0.00399,0.19218,2.89375,1.58474,0.03345,1.60931
0.08642,229.373,4.69346,225.609,0.19219,0.00393,0.18904,2.92043,1.63918,0.03354,1.61229
0.08721,214.442,4.58783,221.941,0.17968,0.00384,0.18596,2.9471,1.5606,0.03339,1.61518
0.088,212.359,4.60544,218.356,0.17794,0.00386,0.18296,2.97377,1.57355,0.03413,1.61798
0.08879,213.779,4.55281,214.852,0.17913,0.00381,0.18002,3.00045,1.61261,0.03434,1.6207
0.08958,218.999,4.51335,211.426,0.1835,0.00378,0.17715,3.02712,1.68149,0.03465,1.62334
0.09037,209.485,4.48211,208.075,0.17553,0.00376,0.17435,3.05379,1.63691,0.03502,1.62589
0.09116,208.349,4.52472,204.799,0.17458,0.00379,0.1716,3.08047,1.6566,0.03598,1.62837
0.09195,200.939,4.43502,201.596,0.16837,0.00372,0.16892,3.10714,1.62547,0.03588,1.63078
0.09274,199.934,4.37391,198.463,0.16753,0.00366,0.16629,3.13381,1.64523,0.03599,1.63312
0.09353,193.097,4.53111,195.4,0.1618,0.0038,0.16373,3.16048,1.61613,0.03792,1.63541
0.09432,194.4,4.63255,192.4053,0.16289,0.00388,0.16122,3.18716,1.65461,0.03943,1.63763
0.09511,181.917,4.59952,189.476,0.15243,0.00385,0.15876,3.21383,1.57439,0.03981,1.63981
0.0959,185.541,4.63077,186.611,0.15547,0.00388,0.15636,3.2405,1.63252,0.04074,1.64194
0.09668,187.103,4.68773,183.81,0.15677,0.00393,0.15401,3.26718,1.67347,0.04193,1.64402
0.09747,183.387,4.73488,181.068,0.15366,0.00397,0.15172,3.29385,1.66713,0.04304,1.64605
0.09826,172.77,4.68588,178.387,0.14476,0.00393,0.14947,3.32052,1.59615,0.04329,1.64805
0.09905,177.446,4.48952,175.764,0.14868,0.00376,0.14727,3.3472,1.6658,0.04215,1.65
0.09984,173.164,4.39342,173.196,0.14509,0.00368,0.14512,3.37387,1.65161,0.0419,1.65192
0.10063,172.397,4.31881,170.6848,0.14445,0.00362,0.14302,3.40053,1.67038,0.04185,1.65379
0.10142,167.48,4.2902,168.223,0.14033,0.00359,0.14095,3.42722,1.64832,0.04222,1.65562
0.10221,165.623,4.22072,165.815,0.13878,0.00354,0.13894,3.45388,1.6555,0.04219,1.65742
0.103,161.245,4.15374,163.456,0.13511,0.00348,0.13696,3.48055,1.63672,0.04216,1.65916
0.10379,156.391,4.14969,161.143,0.13104,0.00348,0.13502,3.50724,1.61189,0.04277,1.66087
0.10458,160.067,4.12669,158.878,0.13412,0.00346,0.13312,3.5339,1.67496,0.04318,1.66252
0.10537,155.234,4.04704,156.66,0.13007,0.00339,0.13127,3.56057,1.64899,0.04299,1.66413
0.10616,158.744,4.01907,154.483,0.13301,0.00337,0.12944,3.58726,1.71166,0.04334,1.66571
0.10695,152.464,4.01434,152.352,0.12775,0.00336,0.12766,3.61392,1.66847,0.04393,1.66724
0.10773,152.479,3.99138,150.264,0.12776,0.00334,0.12591,3.64059,1.69335,0.04433,1.66874
0.10852,147.33,3.89151,148.214,0.12345,0.00326,0.12419,3.66728,1.66025,0.04385,1.67021
0.10931,140.197,3.8469,146.209,0.11747,0.00322,0.12251,3.69394,1.60292,0.04398,1.67165
0.1101,138.207,3.84186,144.243,0.1158,0.00322,0.12086,3.7206,1.60306,0.04456,1.67307
0.11089,143.925,3.88274,142.313,0.1206,0.00325,0.11924,3.7473,1.69343,0.04568,1.67446
0.11168,140.642,3.79967,140.424,0.11784,0.00318,0.11766,3.77396,1.67843,0.04535,1.67582
0.11247,136.575,3.79249,138.571,0.11444,0.00318,0.11611,3.80062,1.653,0.0459,1.67717
0.11326,130.461,3.7606,136.753,0.10931,0.00315,0.11459,3.82732,1.60127,0.04616,1.67849
0.11405,138.926,3.72452,134.971,0.11641,0.00312,0.11309,3.85398,1.729,0.04635,1.67979
0.11484,134.036,3.72729,133.224,0.11231,0.00312,0.11163,3.88064,1.69131,0.04703,1.68106
0.11563,126.962,3.67099,131.508,0.10638,0.00308,0.11019,3.90734,1.62416,0.04696,1.68232
0.11642,130.35,3.65004,129.826,0.10922,0.00306,0.10878,3.934,1.69034,0.04733,1.68355
0.11721,130.247,3.67387,128.176,0.10913,0.00308,0.1074,3.96066,1.71197,0.04829,1.68475
0.118,132.336,3.66114,126.554,0.11088,0.00307,0.10604,3.98736,1.76296,0.04877,1.68593
0.11879,120.788,3.5679,124.964,0.10121,0.00299,0.10471,4.01402,1.63071,0.04817,1.68708
0.11958,119.834,3.53932,123.402,0.10041,0.00297,0.1034,4.04068,1.63939,0.04842,1.6882
0.12036,118.96,3.54298,121.866,0.09968,0.00297,0.10211,4.06738,1.64901,0.04911,1.68929
0.12115,113.192,3.50459,120.36,0.09484,0.00294,0.10085,4.09404,1.58969,0.04922,1.69036
0.12194,120.682,3.48438,118.881,0.10112,0.00292,0.09961,4.1207,1.71703,0.04957,1.69141
0.12273,115.995,3.42075,117.427,0.09719,0.00287,0.09839,4.1474,1.6718,0.0493,1.69243
0.12352,107.87,3.44637,116,0.09038,0.00289,0.0972,4.17406,1.57475,0.05031,1.69344
0.12431,106.51,3.40885,114.599,0.08924,0.00286,0.09602,4.20072,1.57482,0.0504,1.69442
0.1251,114.743,3.38405,113.221,0.09614,0.00284,0.09487,4.22742,1.71818,0.05067,1.69539
0.12589,109.749,3.41032,111.869,0.09196,0.00286,0.09374,4.25408,1.6642,0.05171,1.69635
0.12668,112.625,3.43574,110.5411,0.09437,0.00288,0.09262,4.28074,1.72928,0.05275,1.69729
0.12747,109.6,3.38912,109.235,0.09183,0.00284,0.09153,4.30744,1.70389,0.05269,1.69821
0.12826,110.524,3.36491,107.953,0.09261,0.00282,0.09045,4.3341,1.73959,0.05296,1.69912
0.12905,106.581,3.32241,106.693,0.0893,0.00278,0.0894,4.36076,1.69823,0.05294,1.70001
0.12984,105.66,3.34186,105.453,0.08853,0.0028,0.08836,4.38746,1.70423,0.0539,1.70089
0.13063,94.505,3.24977,104.236,0.07919,0.00272,0.08734,4.41412,1.54289,0.05306,1.70176
0.13142,102.355,3.28704,103.039,0.08576,0.00275,0.08634,4.44078,1.6913,0.05431,1.70261
0.1322,97.9511,3.25953,101.861,0.08207,0.00273,0.08535,4.46748,1.63805,0.05451,1.70344
0.13299,98.3022,3.23595,100.704,0.08237,0.00271,0.08438,4.49414,1.6636,0.05476,1.70425
0.13378,95.3892,3.22925,99.56577,0.07993,0.00271,0.08343,4.5208,1.63351,0.0553,1.70504
0.13457,97.8369,3.25087,98.4447,0.08198,0.00272,0.08249,4.5475,1.69528,0.05633,1.70581
0.13536,94.025,3.17811,97.34327,0.07878,0.00266,0.08156,4.57416,1.64839,0.05572,1.70656
0.13615,94.7256,3.1832,96.25972,0.07937,0.00267,0.08066,4.60082,1.68008,0.05646,1.70729
0.13694,92.1546,3.15964,95.19239,0.07722,0.00265,0.07976,4.62752,1.65351,0.05669,1.70801
0.13773,92.6715,3.14071,94.14364,0.07765,0.00263,0.07888,4.65418,1.682,0.057,1.70872
0.13852,88.6341,3.13842,93.11179,0.07427,0.00263,0.07802,4.68084,1.6272,0.05762,1.70941
0.13931,88.3405,3.12024,92.09524,0.07402,0.00261,0.07717,4.70754,1.64036,0.05794,1.71008
0.1401,86.9691,3.10281,91.09624,0.07287,0.0026,0.07633,4.7342,1.63324,0.05827,1.71075
0.14089,87.3707,3.10054,90.11315,0.07321,0.0026,0.07551,4.76086,1.65932,0.05888,1.7114
0.14168,85.6136,3.05784,89.14445,0.07174,0.00256,0.07469,4.78755,1.64423,0.05873,1.71204
0.14247,90.0355,3.09004,88.19224,0.07544,0.00259,0.0739,4.81422,1.74847,0.06001,1.71267
0.14325,84.9286,3.07361,87.25498,0.07116,0.00258,0.07311,4.84088,1.66761,0.06035,1.71329
0.14405,86.2012,3.05813,86.33118,0.07223,0.00256,0.07234,4.86757,1.71132,0.06071,1.7139
0.14483,83.6723,3.03456,85.42284,0.07011,0.00254,0.07158,4.89424,1.67936,0.06091,1.7145
0.14562,84.9647,3.0178,84.52846,0.07119,0.00253,0.07083,4.9209,1.72393,0.06123,1.71508
0.14641,77.2834,3.01266,83.64661,0.06476,0.00252,0.07009,4.94759,1.58514,0.06179,1.71565
0.1472,84.9214,3.00914,82.7792,0.07116,0.00252,0.06936,4.97426,1.76062,0.06239,1.71621
0.14799,80.3035,2.96599,81.92476,0.06729,0.00249,0.06864,5.00092,1.68278,0.06215,1.71675
0.14878,81.6407,3.02228,81.08195,0.06841,0.00253,0.06794,5.02761,1.72911,0.06401,1.71728
0.14957,79.9379,3.08417,80.25266,0.06698,0.00258,0.06724,5.05428,1.71105,0.06602,1.71779
0.15036,84.0255,3.13297,79.43562,0.07041,0.00263,0.06656,5.08094,1.81757,0.06777,1.71829
0.15115,79.274,3.15188,78.6296,0.06642,0.00264,0.06588,5.10763,1.73286,0.0689,1.71877
0.15194,72.3633,3.13361,77.83645,0.06063,0.00263,0.06522,5.13429,1.59835,0.06921,1.71924
0.15273,76.3024,3.2018,77.05493,0.06393,0.00268,0.06456,5.16096,1.70291,0.07146,1.7197
0.15352,74.7513,3.21388,76.28387,0.06263,0.00269,0.06392,5.18765,1.6856,0.07247,1.72015
0.15431,74.6425,3.12082,75.52501,0.06254,0.00261,0.06328,5.21431,1.70049,0.0711,1.72059
0.1551,66.5872,3.03757,74.77717,0.05579,0.00255,0.06266,5.24098,1.53253,0.06991,1.72102
0.15588,68.3561,3.07241,74.03921,0.05728,0.00257,0.06204,5.26767,1.58931,0.07143,1.72144
0.15667,73.7782,3.03093,73.3128,0.06182,0.00254,0.06143,5.29433,1.73278,0.07119,1.72185
0.15746,75.933,2.9788,72.59679,0.06362,0.0025,0.06083,5.321,1.8014,0.07067,1.72225
0.15825,73.7671,2.98629,71.89009,0.06181,0.0025,0.06024,5.34769,1.76762,0.07156,1.72264
0.15904,67.7272,2.96133,71.19428,0.05675,0.00248,0.05965,5.37435,1.63911,0.07167,1.72302
0.15983,69.2647,2.95425,70.50826,0.05804,0.00248,0.05908,5.40102,1.693,0.07221,1.72339
0.16062,69.9965,2.94597,69.83097,0.05865,0.00247,0.05851,5.42771,1.72784,0.07272,1.72375
0.16141,70.7363,2.91065,69.16392,0.05927,0.00244,0.05795,5.45437,1.7633,0.07256,1.7241
0.1622,68.3236,2.91216,68.50604,0.05725,0.00244,0.0574,5.48103,1.71984,0.0733,1.72444
0.16299,70.278,2.90896,67.85631,0.05889,0.00244,0.05686,5.50773,1.78631,0.07394,1.72476
0.16378,65.7158,2.90524,67.2162,0.05506,0.00243,0.05632,5.53439,1.68656,0.07456,1.72507
0.16457,68.7686,2.89552,66.58473,0.05762,0.00243,0.05579,5.56105,1.78196,0.07503,1.72537
0.16536,68.4109,2.87384,65.96101,0.05732,0.00241,0.05527,5.58775,1.78975,0.07518,1.72566
0.16615,63.4177,2.88373,65.34646,0.05314,0.00242,0.05475,5.61441,1.67499,0.07617,1.72593
0.16694,60.7051,2.86408,64.74018,0.05086,0.0024,0.05425,5.64107,1.61861,0.07637,1.7262
0.16773,60.8618,2.8275,64.14128,0.051,0.00237,0.05374,5.66777,1.63818,0.07611,1.72645
0.16851,58.598,2.82249,63.55115,0.0491,0.00236,0.05325,5.69443,1.59212,0.07669,1.7267
0.1693,58.8443,2.80851,62.96888,0.04931,0.00235,0.05276,5.72109,1.61382,0.07702,1.72694
0.17009,64.6204,2.8229,62.39363,0.05415,0.00237,0.05228,5.74779,1.78881,0.07814,1.72717
0.17088,62.5321,2.7731,61.82673,0.0524,0.00232,0.0518,5.77445,1.7471,0.07748,1.72739
0.17167,61.5052,2.79598,61.26731,0.05154,0.00234,0.05134,5.80111,1.73431,0.07884,1.72761
0.17246,65.0481,2.82839,60.71454,0.0545,0.00237,0.05087,5.82781,1.85114,0.08049,1.72781
0.17325,57.8027,2.7639,60.1697,0.04843,0.00232,0.05042,5.85447,1.66003,0.07938,1.72801
0.17404,61.4787,2.78386,59.63195,0.05151,0.00233,0.04997,5.88113,1.78172,0.08068,1.7282
0.17483,58.0216,2.7454,59.1005,0.04862,0.0023,0.04952,5.90783,1.69683,0.08029,1.72838
0.17562,57.5045,2.76272,58.57655,0.04818,0.00231,0.04908,5.93449,1.69692,0.08153,1.72856
0.17641,55.7481,2.7302,58.0593,0.04671,0.00229,0.04865,5.96115,1.65991,0.08129,1.72872
0.1772,58.1844,2.72918,57.54799,0.04875,0.00229,0.04822,5.98785,1.748,0.08199,1.72888
0.17799,58.9929,2.71753,57.04377,0.04943,0.00228,0.0478,6.01451,1.78811,0.08237,1.72903
0.17877,56.8187,2.75359,56.54588,0.04761,0.00231,0.04738,6.04117,1.73751,0.0842,1.72916
0.17957,53.7085,2.72605,56.05362,0.045,0.00228,0.04697,6.06787,1.65695,0.0841,1.72929
0.18035,56.9391,2.7039,55.56814,0.04771,0.00227,0.04656,6.09453,1.77208,0.08415,1.72942
0.18114,50.6585,2.68471,55.08874,0.04245,0.00225,0.04616,6.12119,1.59044,0.08429,1.72953
0.18193,52.9323,2.6971,54.61472,0.04435,0.00226,0.04576,6.14789,1.67635,0.08542,1.72964
0.18272,53.1728,2.69668,54.1472,0.04455,0.00226,0.04537,6.17455,1.69861,0.08615,1.72973
0.18351,54.2558,2.70133,53.68549,0.04546,0.00226,0.04498,6.20121,1.7482,0.08704,1.72983
0.1843,50.4598,2.67098,53.22892,0.04228,0.00224,0.0446,6.22791,1.63992,0.08681,1.72992
0.18509,55.0755,2.70264,52.77857,0.04615,0.00226,0.04422,6.25457,1.80529,0.08859,1.73
0.18588,55.0589,2.7266,52.33376,0.04613,0.00228,0.04385,6.28123,1.82016,0.09014,1.73007
0.18667,50.7192,2.69428,51.89385,0.0425,0.00226,0.04348,6.30793,1.69098,0.08983,1.73014
0.18746,50.0065,2.67921,51.45987,0.0419,0.00224,0.04312,6.33459,1.68134,0.09008,1.73021
0.18825,52.6566,2.71613,51.03118,0.04412,0.00228,0.04276,6.36125,1.78538,0.09209,1.73027
0.18904,50.8311,2.70992,50.60715,0.04259,0.00227,0.0424,6.38795,1.73798,0.09266,1.73032
0.18983,47.2187,2.67199,50.18876,0.03956,0.00224,0.04205,6.41461,1.62797,0.09212,1.73037
0.19062,49.244,2.68762,49.77539,0.04126,0.00225,0.04171,6.44127,1.71194,0.09343,1.73042
0.1914,49.8071,2.70399,49.36644,0.04173,0.00227,0.04136,6.46797,1.7459,0.09478,1.73045
0.19219,52.414,2.71946,48.96285,0.04392,0.00228,0.04103,6.49463,1.85246,0.09611,1.73049
0.19298,51.0089,2.71559,48.56402,0.04274,0.00228,0.04069,6.52129,1.81763,0.09677,1.73051
0.19377,49.9497,2.71732,48.16938,0.04185,0.00228,0.04036,6.54798,1.79449,0.09762,1.73053
0.19456,47.2532,2.68312,47.77987,0.03959,0.00225,0.04003,6.57465,1.71147,0.09718,1.73054
0.19535,46.848,2.70298,47.39494,0.03925,0.00226,0.03971,6.60131,1.71058,0.0987,1.73055
0.19614,42.2642,2.67283,47.01404,0.03541,0.00224,0.03939,6.628,1.55572,0.09839,1.73056
0.19693,49.4941,2.68676,46.63807,0.04147,0.00225,0.03908,6.65467,1.83653,0.0997,1.73056
0.19772,43.7576,2.6838,46.26649,0.03666,0.00225,0.03877,6.68133,1.63671,0.10038,1.73055
0.19851,44.099,2.71442,45.89879,0.03695,0.00227,0.03846,6.70802,1.66269,0.10234,1.73055
0.1993,47.3153,2.68168,45.53583,0.03965,0.00225,0.03815,6.73469,1.79816,0.10191,1.73054
0.20009,47.0501,2.69101,45.17708,0.03942,0.00225,0.03785,6.76135,1.80227,0.10308,1.73052
0.20088,44.1765,2.6623,44.82203,0.03702,0.00223,0.03756,6.78804,1.70559,0.10279,1.73051
0.20167,45.8555,2.69407,44.47154,0.03842,0.00226,0.03726,6.81471,1.78434,0.10483,1.73049
0.20245,44.3132,2.67449,44.12508,0.03713,0.00224,0.03697,6.84137,1.73785,0.10489,1.73047
0.20325,44.2692,2.65734,43.78216,0.03709,0.00223,0.03669,6.86806,1.7497,0.10503,1.73045
0.20403,43.9263,2.64058,43.4436,0.03681,0.00221,0.0364,6.89472,1.74965,0.10518,1.73042
0.20482,42.6115,2.75103,43.10889,0.0357,0.00231,0.03612,6.92139,1.71043,0.11043,1.7304
0.20561,43.3736,2.77488,42.77757,0.03634,0.00233,0.03584,6.94808,1.75448,0.11225,1.73037
0.2064,43.0948,2.79845,42.4504,0.03611,0.00234,0.03557,6.97474,1.75661,0.11407,1.73034
0.20719,46.0795,2.84271,42.12692,0.03861,0.00238,0.0353,7.00141,1.89265,0.11676,1.73031
0.20798,36.0801,2.87022,41.80665,0.03023,0.0024,0.03503,7.0281,1.49327,0.11879,1.73027
0.20877,41.5305,2.90889,41.49036,0.0348,0.00244,0.03476,7.05476,1.73191,0.12131,1.73024
0.20956,43.8894,2.94621,41.1776,0.03678,0.00247,0.0345,7.08143,1.84414,0.12379,1.7302
0.21035,44.2709,2.87026,40.86793,0.03709,0.0024,0.03424,7.10812,1.87422,0.12151,1.73016
0.21114,40.8292,2.79065,40.56209,0.03421,0.00234,0.03399,7.13478,1.74151,0.11903,1.73011
0.21193,41.0262,2.79169,40.25964,0.03438,0.00234,0.03373,7.16145,1.76301,0.11997,1.73007
0.21272,43.9568,2.79851,39.96015,0.03683,0.00234,0.03348,7.18814,1.90306,0.12116,1.73003
0.21351,44.6533,2.77061,39.66434,0.03742,0.00232,0.03323,7.2148,1.94758,0.12084,1.72998
0.2143,38.0165,2.74807,39.37179,0.03185,0.0023,0.03299,7.24146,1.67039,0.12075,1.72994
0.21508,37.3882,2.75793,39.08207,0.03133,0.00231,0.03275,7.26816,1.65492,0.12207,1.72989
0.21587,42.8416,2.8003,38.79588,0.0359,0.00235,0.03251,7.29482,1.91024,0.12486,1.72985
0.21666,39.2488,2.78504,38.51281,0.03289,0.00233,0.03227,7.32148,1.76286,0.12509,1.7298
0.21745,37.1317,2.7803,38.23245,0.03111,0.00233,0.03204,7.34818,1.67995,0.12579,1.72976
0.21824,39.4808,2.79637,37.95547,0.03308,0.00234,0.0318,7.37484,1.79922,0.12744,1.72971
0.21903,43.3731,2.78797,37.68146,0.03634,0.00234,0.03157,7.4015,1.99092,0.12797,1.72966
0.21982,42.795,2.77094,37.41004,0.03586,0.00232,0.03135,7.4282,1.97858,0.12811,1.72961
0.22061,34.4708,2.74342,37.14185,0.02888,0.0023,0.03112,7.45486,1.60518,0.12775,1.72956
0.2214,39.526,2.80255,36.87649,0.03312,0.00235,0.0309,7.48152,1.85377,0.13144,1.72951
0.22219,41.7895,2.76137,36.61359,0.03502,0.00231,0.03068,7.50822,1.97394,0.13043,1.72946
0.22298,39.6611,2.76734,36.35378,0.03323,0.00232,0.03046,7.53488,1.88673,0.13165,1.7294
0.22377,43.9903,2.79453,36.09669,0.03686,0.00234,0.03025,7.56154,2.10752,0.13388,1.72934
0.22456,38.6795,2.82513,35.84195,0.03241,0.00237,0.03003,7.58824,1.86619,0.13631,1.72929
0.22535,36.1127,2.78109,35.59018,0.03026,0.00233,0.02982,7.6149,1.75461,0.13513,1.72923
0.22614,37.4745,2.76124,35.34103,0.0314,0.00231,0.02961,7.64156,1.83355,0.1351,1.72917
0.22692,36.9109,2.81052,35.09415,0.03093,0.00235,0.02941,7.66826,1.81862,0.13848,1.7291
0.22771,39.8525,2.82435,34.85013,0.03339,0.00237,0.0292,7.69492,1.97723,0.14013,1.72904
0.2285,36.3874,2.76198,34.60863,0.03049,0.00231,0.029,7.72158,1.81784,0.13798,1.72898
0.22929,33.4876,2.76258,34.3693,0.02806,0.00231,0.0288,7.74828,1.68456,0.13897,1.72892
0.23008,38.743,2.78175,34.13273,0.03246,0.00233,0.0286,7.77494,1.96237,0.1409,1.72885
0.23087,43.0671,2.80405,33.89857,0.03609,0.00235,0.0284,7.8016,2.19637,0.143,1.72879
0.23166,39.3015,2.77243,33.66649,0.03293,0.00232,0.02821,7.8283,2.01807,0.14236,1.72872
0.23245,35.7778,2.77847,33.43706,0.02998,0.00233,0.02802,7.85496,1.84967,0.14364,1.72866
0.23324,35.4767,2.76368,33.20994,0.02973,0.00232,0.02783,7.88162,1.84658,0.14385,1.72859
0.23403,32.5824,2.79178,32.98482,0.0273,0.00234,0.02764,7.90832,1.70744,0.1463,1.72852
0.23482,34.0135,2.78779,32.76223,0.0285,0.00234,0.02745,7.93498,1.79447,0.14708,1.72845
0.23561,35.813,2.76914,32.54185,0.03001,0.00232,0.02727,7.96164,1.90212,0.14708,1.72838
0.2364,37.3654,2.74804,32.32338,0.03131,0.0023,0.02708,7.98834,1.99791,0.14694,1.72831
0.23719,31.5773,2.75268,32.10733,0.02646,0.00231,0.0269,8.015,1.69971,0.14817,1.72824
0.23797,34.4963,2.77923,31.8934,0.0289,0.00233,0.02672,8.04166,1.86921,0.15059,1.72817
0.23877,32.7077,2.74284,31.68129,0.02741,0.0023,0.02655,8.06836,1.78408,0.14961,1.72809
0.23955,35.5539,2.77172,31.47152,0.02979,0.00232,0.02637,8.09502,1.95216,0.15219,1.72801
0.24034,35.032,2.77769,31.2638,0.02935,0.00233,0.0262,8.12168,1.9362,0.15352,1.72793
0.24113,33.1201,2.76839,31.05784,0.02775,0.00232,0.02602,8.14838,1.84258,0.15401,1.72785
0.24192,35.5782,2.74349,30.85414,0.02981,0.0023,0.02585,8.17504,1.99231,0.15363,1.72777
0.24271,30.6531,2.75279,30.65242,0.02568,0.00231,0.02568,8.2017,1.72773,0.15516,1.72769
0.2435,31.1051,2.79792,30.45239,0.02606,0.00234,0.02552,8.2284,1.76464,0.15873,1.72761
0.24429,34.9612,2.78674,30.25455,0.02929,0.00234,0.02535,8.25506,1.99627,0.15912,1.72752
0.24508,36.2727,2.76358,30.0586,0.03039,0.00232,0.02519,8.28172,2.08456,0.15882,1.72744
0.24587,29.6617,2.72611,29.86429,0.02485,0.00228,0.02502,8.30841,1.71564,0.15768,1.72736
0.24666,34.8907,2.76087,29.67209,0.02923,0.00231,0.02486,8.33508,2.03106,0.16072,1.72727
0.24745,34.582,2.80955,29.48171,0.02898,0.00235,0.0247,8.36174,2.02599,0.1646,1.72719
0.24824,33.4286,2.78804,29.2929,0.02801,0.00234,0.02454,8.38843,1.97094,0.16438,1.7271
0.24903,34.4047,2.74875,29.10612,0.02883,0.0023,0.02439,8.4151,2.0414,0.1631,1.72701
0.24982,31.7491,2.74983,28.9211,0.0266,0.0023,0.02423,8.44176,1.89579,0.1642,1.72693
0.25061,28.8847,2.80511,28.73758,0.0242,0.00235,0.02408,8.46845,1.73568,0.16856,1.72684
0.25139,30.7829,2.7566,28.556,0.02579,0.00231,0.02393,8.49512,1.86141,0.16669,1.72675
0.25218,31.1833,2.74217,28.37612,0.02613,0.0023,0.02378,8.52178,1.89747,0.16686,1.72666
0.25297,34.2818,2.7776,28.19768,0.02872,0.00233,0.02363,8.54847,2.0991,0.17007,1.72657
0.25376,31.3058,2.7796,28.02111,0.02623,0.00233,0.02348,8.57514,1.92886,0.17126,1.72648
0.25455,29.4386,2.77267,27.84618,0.02467,0.00232,0.02333,8.6018,1.82511,0.1719,1.72638
0.25534,31.6692,2.73445,27.67265,0.02654,0.00229,0.02319,8.62849,1.9756,0.17058,1.72629
0.25613,30.5946,2.77094,27.50093,0.02564,0.00232,0.02304,8.65515,1.92038,0.17393,1.7262
0.25692,28.9147,2.7647,27.3308,0.02423,0.00232,0.0229,8.68182,1.82614,0.17461,1.7261
0.25771,29.9878,2.73018,27.16201,0.02513,0.00229,0.02276,8.70851,1.90557,0.17349,1.72601
0.2585,24.8553,2.72986,26.99498,0.02083,0.00229,0.02262,8.73517,1.58911,0.17453,1.72591
0.25929,30.4907,2.73795,26.82947,0.02555,0.00229,0.02248,8.76184,1.96133,0.17612,1.72582
0.26008,37.5984,2.77324,26.66527,0.0315,0.00232,0.02234,8.78853,2.4333,0.17948,1.72573
0.26087,31.0778,2.867,26.50277,0.02604,0.0024,0.02221,8.81519,2.02352,0.18667,1.72563
0.26166,30.8729,2.97202,26.34173,0.02587,0.00249,0.02207,8.84186,2.02235,0.19468,1.72554
0.26244,31.5458,2.9888,26.18195,0.02643,0.0025,0.02194,8.86855,2.07893,0.19697,1.72544
0.26323,28.2152,3.0696,26.02381,0.02364,0.00257,0.02181,8.89521,1.87063,0.20351,1.72535
0.26402,28.2964,3.12314,25.86709,0.02371,0.00262,0.02167,8.92188,1.88728,0.2083,1.72525
0.26481,31.2815,3.14461,25.71157,0.02621,0.00263,0.02154,8.94857,2.09888,0.21099,1.72516
0.2656,34.1915,3.17618,25.55763,0.02865,0.00266,0.02141,8.97523,2.30782,0.21438,1.72506
0.26639,24.549,3.05444,25.40506,0.02057,0.00256,0.02129,9.00189,1.66684,0.20739,1.72497
0.26718,36.1418,3.00755,25.25365,0.03028,0.00252,0.02116,9.02859,2.46855,0.20542,1.72487
0.26797,25.0268,2.92504,25.10375,0.02097,0.00245,0.02103,9.05525,1.71949,0.20097,1.72478
0.26876,29.0657,2.92766,24.95518,0.02435,0.00245,0.02091,9.08191,2.00876,0.20233,1.72468
0.26955,32.6487,2.95268,24.80772,0.02736,0.00247,0.02079,9.10861,2.26967,0.20526,1.72458
0.27034,27.7271,2.90754,24.66174,0.02323,0.00244,0.02066,9.13527,1.93883,0.20331,1.72449
0.27113,29.9779,2.92063,24.51703,0.02512,0.00245,0.02054,9.16193,2.10848,0.20542,1.72439
0.27192,25.8952,2.87219,24.3734,0.0217,0.00241,0.02042,9.18863,1.83195,0.20319,1.72429
0.27271,30.2529,2.9226,24.2312,0.02535,0.00245,0.0203,9.21529,2.15267,0.20796,1.72419
0.27349,30.3203,2.89598,24.09023,0.02541,0.00243,0.02019,9.24195,2.16997,0.20726,1.7241
0.27429,29.7721,2.8653,23.95029,0.02495,0.0024,0.02007,9.26865,2.14307,0.20625,1.724
0.27507,31.0912,2.83841,23.81174,0.02605,0.00238,0.01995,9.29531,2.25091,0.20549,1.7239
0.27586,25.5372,2.83499,23.67437,0.0214,0.00238,0.01984,9.32197,1.85944,0.20642,1.7238
0.27665,29.4362,2.8374,23.538,0.02466,0.00238,0.01972,9.34867,2.15563,0.20778,1.7237
0.27744,27.3582,2.85064,23.40296,0.02292,0.00239,0.01961,9.37533,2.0149,0.20995,1.7236
0.27823,33.2158,2.84866,23.26906,0.02783,0.00239,0.0195,9.40199,2.46024,0.211,1.7235
0.27902,28.5478,2.85126,23.13612,0.02392,0.00239,0.01939,9.42869,2.12651,0.21239,1.7234
0.27981,24.802,2.82946,23.00446,0.02078,0.00237,0.01928,9.45535,1.85795,0.21196,1.7233
0.2806,30.3969,2.84121,22.8739,0.02547,0.00238,0.01917,9.48201,2.28994,0.21404,1.72319
0.28139,25.1853,2.80721,22.74426,0.0211,0.00235,0.01906,9.50871,1.90802,0.21267,1.72309
0.28218,23.1679,2.81133,22.61586,0.01941,0.00236,0.01895,9.53537,1.76504,0.21418,1.72298
0.28297,22.3822,2.81501,22.48851,0.01875,0.00236,0.01884,9.56203,1.71473,0.21566,1.72288
0.28376,20.5923,2.78267,22.36206,0.01725,0.00233,0.01874,9.58873,1.58643,0.21438,1.72277
0.28455,21.6935,2.78987,22.2368,0.01818,0.00234,0.01863,9.61539,1.68057,0.21613,1.72266
0.28534,29.7319,2.83363,22.11258,0.02491,0.00237,0.01853,9.64205,2.31609,0.22074,1.72255
0.28613,24.7769,2.83864,21.98923,0.02076,0.00238,0.01842,9.66875,1.9408,0.22235,1.72244
0.28691,22.3956,2.79002,21.86704,0.01877,0.00234,0.01832,9.69541,1.76396,0.21975,1.72233
0.2877,27.5087,2.80985,21.74585,0.02305,0.00235,0.01822,9.72207,2.17862,0.22253,1.72221
0.28849,21.0057,2.78975,21.6255,0.0176,0.00234,0.01812,9.74877,1.67274,0.22216,1.7221
0.28928,26.4905,2.82584,21.50629,0.0222,0.00237,0.01802,9.77543,2.12107,0.22626,1.72199
0.29007,32.075,2.82968,21.38804,0.02688,0.00237,0.01792,9.80209,2.58224,0.22781,1.72187
0.29086,24.9891,2.81678,21.27061,0.02094,0.00236,0.01782,9.82879,2.02276,0.22801,1.72176
0.29165,21.9077,2.81262,21.15429,0.01836,0.00236,0.01773,9.85545,1.78296,0.22891,1.72165
0.29244,27.0701,2.81356,21.0389,0.02268,0.00236,0.01763,9.88211,2.21504,0.23022,1.72153
0.29323,32.4849,2.82181,20.9243,0.02722,0.00236,0.01753,9.90881,2.6725,0.23215,1.72142
0.29402,32.1887,2.83275,20.81077,0.02697,0.00237,0.01744,9.93547,2.6624,0.2343,1.7213
0.29481,23.8008,2.77744,20.69815,0.01994,0.00233,0.01734,9.96213,1.9792,0.23096,1.72119
0.2956,24.6652,2.77204,20.58629,0.02067,0.00232,0.01725,9.98883,2.06208,0.23175,1.72108
0.29639,26.4135,2.79303,20.47547,0.02213,0.00234,0.01716,10.01549,2.22005,0.23475,1.72096
0.29718,24.5096,2.77155,20.36553,0.02054,0.00232,0.01706,10.04215,2.07101,0.23419,1.72085
0.29796,26.2868,2.80204,20.25633,0.02203,0.00235,0.01697,10.06884,2.23301,0.23803,1.72073
0.29875,25.178,2.80524,20.14813,0.0211,0.00235,0.01688,10.09551,2.15016,0.23956,1.72062
0.29954,23.594,2.80386,20.04079,0.01977,0.00235,0.01679,10.12217,2.02554,0.24071,1.7205
0.30033,21.8381,2.75744,19.93417,0.0183,0.00231,0.0167,10.14886,1.8847,0.23798,1.72039
0.30112,18.0337,2.74077,19.82851,0.01511,0.0023,0.01661,10.17553,1.56456,0.23778,1.72027
0.30191,20.8831,2.77922,19.72369,0.0175,0.00233,0.01653,10.20219,1.82127,0.24238,1.72016
0.3027,20.2054,2.75784,19.61956,0.01693,0.00231,0.01644,10.22888,1.7714,0.24178,1.72004
0.30349,18.5943,2.76879,19.51638,0.01558,0.00232,0.01635,10.25555,1.63867,0.24401,1.71993
0.30428,24.1956,2.77402,19.414,0.02027,0.00232,0.01627,10.28221,2.14339,0.24574,1.71981
0.30507,24.5121,2.77976,19.31229,0.02054,0.00233,0.01618,10.3089,2.18272,0.24753,1.7197
0.30586,20.2001,2.76324,19.21149,0.01693,0.00232,0.0161,10.33557,1.80807,0.24733,1.71958
0.30665,25.99,2.79433,19.11148,0.02178,0.00234,0.01601,10.36223,2.33833,0.25141,1.71947
0.30744,24.1233,2.76546,19.0121,0.02021,0.00232,0.01593,10.38892,2.18158,0.25009,1.71935
0.30823,29.4717,2.80496,18.91362,0.02469,0.00235,0.01585,10.41558,2.67896,0.25497,1.71923
0.30901,28.0915,2.78645,18.81588,0.02354,0.00233,0.01577,10.44225,2.56659,0.25458,1.71912
0.3098,20.5231,2.75986,18.71877,0.0172,0.00231,0.01568,10.46894,1.8847,0.25345,1.719
0.31059,22.3453,2.78016,18.62252,0.01872,0.00233,0.0156,10.4956,2.0625,0.25661,1.71888
0.31138,24.0114,2.77411,18.52699,0.02012,0.00232,0.01552,10.52227,2.22756,0.25736,1.71876
0.31217,21.475,2.76048,18.43206,0.01799,0.00231,0.01544,10.54896,2.00238,0.25739,1.71865
0.31296,24.0119,2.77254,18.33797,0.02012,0.00232,0.01537,10.57562,2.25025,0.25983,1.71853
0.31375,24.1529,2.78438,18.24458,0.02024,0.00233,0.01529,10.60229,2.2749,0.26225,1.71841
0.31454,26.803,2.77418,18.15178,0.02246,0.00232,0.01521,10.62898,2.53723,0.26261,1.71829
0.31533,22.2438,2.77323,18.05979,0.01864,0.00232,0.01513,10.65564,2.11622,0.26384,1.71817
0.31612,21.0906,2.8472,17.96849,0.01767,0.00239,0.01506,10.68231,2.01656,0.27223,1.71805
0.31691,22.2711,2.94495,17.87777,0.01866,0.00247,0.01498,10.709,2.14009,0.28299,1.71793
0.3177,20.7837,3.00756,17.78784,0.01741,0.00252,0.0149,10.73566,2.00712,0.29045,1.71781
0.31849,22.5161,3.0997,17.69858,0.01887,0.0026,0.01483,10.76232,2.18524,0.30083,1.71769
0.31928,20.9187,3.14093,17.60987,0.01753,0.00263,0.01476,10.78902,2.04029,0.30635,1.71757
0.32007,22.0263,3.1805,17.52195,0.01846,0.00266,0.01468,10.81568,2.15895,0.31174,1.71745
0.32086,26.6139,3.21495,17.43467,0.0223,0.00269,0.01461,10.84234,2.62149,0.31667,1.71733
0.32165,28.0904,3.2361,17.34794,0.02354,0.00271,0.01454,10.86904,2.78057,0.32033,1.71721
0.32243,21.1874,3.01606,17.26196,0.01775,0.00253,0.01446,10.8957,2.10757,0.30002,1.71709
0.32322,22.3525,2.97477,17.17663,0.01873,0.00249,0.01439,10.92236,2.23436,0.29736,1.71698
0.32401,16.2138,2.95447,17.09192,0.01359,0.00248,0.01432,10.94903,1.62865,0.29677,1.71686
0.3248,23.9987,2.95845,17.00774,0.02011,0.00248,0.01425,10.97572,2.42241,0.29862,1.71674
0.32559,27.8012,2.96051,16.92428,0.02329,0.00248,0.01418,11.00238,2.81988,0.30028,1.71663
0.32638,20.16,2.92262,16.84144,0.01689,0.00245,0.01411,11.02905,2.05475,0.29788,1.71652
0.32717,21.5346,2.9273,16.75911,0.01804,0.00245,0.01404,11.05574,2.20549,0.2998,1.7164
0.32796,23.2689,2.90498,16.67748,0.0195,0.00243,0.01397,11.0824,2.39462,0.29895,1.71629
0.32875,18.7079,2.87042,16.59646,0.01568,0.00241,0.01391,11.10906,1.93452,0.29682,1.71618
0.32954,24.64,2.91711,16.51593,0.02065,0.00244,0.01384,11.13576,2.5602,0.3031,1.71607
0.33033,21.7211,2.88108,16.4361,0.0182,0.00241,0.01377,11.16242,2.26773,0.30079,1.71597
0.33112,16.8071,2.86138,16.35685,0.01408,0.0024,0.01371,11.18908,1.76309,0.30016,1.71586
0.33191,22.6498,2.87138,16.27809,0.01898,0.00241,0.01364,11.21578,2.38735,0.30265,1.71576
0.3327,23.7674,2.87699,16.2,0.01991,0.00241,0.01357,11.24244,2.51707,0.30469,1.71565
0.33348,23.2809,2.86703,16.12248,0.01951,0.0024,0.01351,11.2691,2.47726,0.30507,1.71555
0.33427,21.2599,2.87088,16.04544,0.01781,0.00241,0.01344,11.2958,2.27294,0.30693,1.71545
0.33506,21.6896,2.85489,15.96905,0.01817,0.00239,0.01338,11.32246,2.32984,0.30666,1.71535
0.33585,22.186,2.83304,15.89323,0.01859,0.00237,0.01332,11.34912,2.3944,0.30575,1.71526
0.33664,20.5447,2.83684,15.81786,0.01721,0.00238,0.01325,11.37582,2.22771,0.3076,1.71517
0.33743,15.3178,2.81294,15.74313,0.01283,0.00236,0.01319,11.40248,1.66874,0.30644,1.71507
0.33822,25.4412,2.85343,15.66895,0.02132,0.00239,0.01313,11.42914,2.78457,0.31231,1.71498
0.33901,19.4651,2.82068,15.59521,0.01631,0.00236,0.01307,11.45584,2.14044,0.31017,1.7149
0.3398,22.7983,2.82,15.5221,0.0191,0.00236,0.01301,11.4825,2.51865,0.31154,1.71481
0.34059,19.086,2.81886,15.44952,0.01599,0.00236,0.01295,11.50916,2.11834,0.31286,1.71473
0.34138,22.1822,2.79671,15.37737,0.01859,0.00234,0.01288,11.53586,2.47342,0.31185,1.71465
0.34217,21.8984,2.82035,15.30583,0.01835,0.00236,0.01282,11.56252,2.45307,0.31594,1.71457
0.34296,25.8171,2.83206,15.23481,0.02163,0.00237,0.01277,11.58918,2.9054,0.31871,1.71449
0.34375,21.9331,2.82655,15.1642,0.01838,0.00237,0.01271,11.61588,2.47969,0.31956,1.71442
0.34453,22.9839,2.78344,15.09418,0.01926,0.00233,0.01265,11.64254,2.61043,0.31613,1.71434
0.34532,16.2615,2.81309,15.02465,0.01363,0.00236,0.01259,11.6692,1.85539,0.32097,1.71427
0.34611,19.5256,2.82055,14.95553,0.01636,0.00236,0.01253,11.6959,2.23802,0.32329,1.7142
0.3469,22.6998,2.82944,14.88698,0.01902,0.00237,0.01247,11.72256,2.61373,0.32579,1.71413
0.34769,20.9727,2.8088,14.8189,0.01757,0.00235,0.01242,11.74922,2.42586,0.32489,1.71406
0.34848,21.8777,2.79389,14.75121,0.01833,0.00234,0.01236,11.77592,2.54205,0.32463,1.714
0.34927,22.7354,2.7995,14.68408,0.01905,0.00235,0.0123,11.80258,2.65369,0.32676,1.71393
0.35006,25.0241,2.7953,14.6174,0.02097,0.00234,0.01225,11.82924,2.93403,0.32774,1.71387
0.35085,22.5446,2.82762,14.5511,0.01889,0.00237,0.01219,11.85594,2.65526,0.33303,1.7138
0.35164,20.0278,2.81694,14.48532,0.01678,0.00236,0.01214,11.8826,2.36946,0.33327,1.71374
0.35243,21.1092,2.82441,14.42,0.01769,0.00237,0.01208,11.90926,2.50862,0.33565,1.71367
0.35322,18.9228,2.79284,14.35502,0.01586,0.00234,0.01203,11.93596,2.25888,0.33339,1.71361
0.35401,18.4276,2.80413,14.29056,0.01544,0.00235,0.01197,11.96262,2.2096,0.33624,1.71354
0.3548,19.9579,2.82599,14.22653,0.01672,0.00237,0.01192,11.98928,2.40378,0.34037,1.71348
0.35559,22.7096,2.81464,14.16283,0.01903,0.00236,0.01187,12.01598,2.74739,0.34051,1.71341
0.35637,19.7695,2.80145,14.09963,0.01656,0.00235,0.01181,12.04264,2.40233,0.34042,1.71334
0.35716,20.98,2.82048,14.03685,0.01758,0.00236,0.01176,12.0693,2.56072,0.34425,1.71327
0.35795,20.9559,2.81985,13.97439,0.01756,0.00236,0.01171,12.096,2.56911,0.3457,1.7132
0.35874,23.0637,2.83535,13.91242,0.01933,0.00238,0.01166,12.12266,2.84,0.34914,1.71313
0.35953,21.0011,2.81894,13.85085,0.0176,0.00236,0.01161,12.14932,2.5974,0.34864,1.71306
0.36032,21.9138,2.81602,13.78961,0.01836,0.00236,0.01155,12.17601,2.72221,0.34982,1.71299
0.36111,15.6366,2.79858,13.72883,0.0131,0.00234,0.0115,12.20268,1.95095,0.34917,1.71292
0.3619,19.7272,2.81701,13.66845,0.01653,0.00236,0.01145,12.22934,2.47209,0.35301,1.71285
0.36269,16.6176,2.7685,13.60839,0.01392,0.00232,0.0114,12.25603,2.09152,0.34845,1.71277
0.36348,17.5981,2.7884,13.54878,0.01475,0.00234,0.01135,12.2827,2.22457,0.35248,1.7127
0.36427,21.5555,2.81877,13.48956,0.01806,0.00236,0.0113,12.30936,2.73667,0.35787,1.71262
0.36506,13.238,2.73676,13.43064,0.01109,0.00229,0.01125,12.33605,1.68798,0.34897,1.71255
0.36585,18.0426,2.75988,13.37218,0.01512,0.00231,0.0112,12.36272,2.31057,0.35344,1.71247
0.36664,15.0669,2.75389,13.31409,0.01262,0.00231,0.01116,12.38938,1.93783,0.35419,1.71239
0.36743,19.3788,2.79505,13.25629,0.01624,0.00234,0.01111,12.41607,2.50316,0.36104,1.71231
0.36822,24.7238,2.77697,13.19893,0.02072,0.00233,0.01106,12.44274,3.2073,0.36024,1.71224
0.369,18.4259,2.78608,13.14194,0.01544,0.00233,0.01101,12.4694,2.40056,0.36298,1.71216
0.36979,17.358,2.75748,13.08523,0.01454,0.00231,0.01096,12.49609,2.27113,0.36079,1.71208
0.37058,20.2225,2.75727,13.02896,0.01694,0.00231,0.01092,12.52275,2.65722,0.3623,1.71199
0.37137,24.3337,2.7752,12.97303,0.02039,0.00233,0.01087,12.54942,3.21106,0.36621,1.71191
0.37216,19.7827,2.88949,12.91737,0.01658,0.00242,0.01082,12.57611,2.62163,0.38292,1.71183
0.37295,15.6037,3.01682,12.86213,0.01307,0.00253,0.01078,12.60277,2.0766,0.40149,1.71174
0.37374,11.8883,3.03864,12.80721,0.00996,0.00255,0.01073,12.62944,1.58884,0.40611,1.71165
0.37453,19.2005,3.21925,12.75254,0.01609,0.0027,0.01069,12.65613,2.57696,0.43207,1.71156
0.37532,13.5446,3.24622,12.69825,0.01135,0.00272,0.01064,12.68279,1.82553,0.43752,1.71146
0.37611,16.0497,3.32801,12.64428,0.01345,0.00279,0.01059,12.70946,2.17227,0.45043,1.71136
0.3769,27.6205,3.36448,12.59053,0.02314,0.00282,0.01055,12.73615,3.75406,0.45729,1.71125
0.37769,15.1649,3.2054,12.53715,0.01271,0.00269,0.0105,12.76281,2.06979,0.43749,1.71114
0.37848,14.7734,3.1089,12.48405,0.01238,0.0026,0.01046,12.78948,2.02479,0.42609,1.71102
0.37927,17.405,3.07117,12.43116,0.01458,0.00257,0.01042,12.81617,2.39543,0.42268,1.71089
0.38005,24.4904,3.09439,12.37861,0.02052,0.00259,0.01037,12.84283,3.38463,0.42765,1.71075
0.38084,21.5697,3.0569,12.32632,0.01807,0.00256,0.01033,12.86949,2.99337,0.42423,1.7106
0.38163,14.307,3.07116,12.27423,0.01199,0.00257,0.01028,12.89619,1.99372,0.42797,1.71045
0.38242,14.0131,2.98465,12.22245,0.01174,0.0025,0.01024,12.92285,1.96085,0.41764,1.71028
0.38321,19.3299,3.04872,12.17091,0.0162,0.00255,0.0102,12.94951,2.716,0.42837,1.71011
0.384,16.7483,3.06084,12.11954,0.01403,0.00256,0.01015,12.97621,2.36298,0.43185,1.70992
0.38479,12.4717,3.01447,12.06847,0.01045,0.00253,0.01011,13.00287,1.76684,0.42705,1.70972
0.38558,14.3595,3.06535,12.01762,0.01203,0.00257,0.01007,13.02953,2.04263,0.43604,1.7095
0.38637,18.7377,3.08898,11.96692,0.0157,0.00259,0.01003,13.05623,2.67636,0.44121,1.70927
0.38716,17.3576,3.05478,11.9165,0.01454,0.00256,0.00998,13.08289,2.48937,0.43811,1.70903
0.38795,21.4068,3.09613,11.86629,0.01794,0.00259,0.00994,13.10955,3.08262,0.44585,1.70877
0.38874,14.4423,3.05204,11.81622,0.0121,0.00256,0.0099,13.13625,2.0882,0.44129,1.7085
0.38953,19.4941,3.11023,11.76642,0.01633,0.00261,0.00986,13.16291,2.83009,0.45153,1.70821
0.39032,18.2286,3.07183,11.71681,0.01527,0.00257,0.00982,13.18957,2.6571,0.44777,1.70791
0.39111,16.9174,3.11701,11.66734,0.01418,0.00261,0.00978,13.21627,2.47596,0.45619,1.70759
0.39189,22.243,3.09492,11.61813,0.01864,0.00259,0.00973,13.24293,3.26855,0.45479,1.70725
0.39268,16.7503,3.06758,11.5691,0.01404,0.00257,0.00969,13.26959,2.47133,0.45259,1.7069
0.39347,13.4507,3.06868,11.52019,0.01127,0.00257,0.00965,13.29629,1.9925,0.45457,1.70653
0.39426,13.251,3.10892,11.47153,0.0111,0.0026,0.00961,13.32295,1.9708,0.46238,1.70614
0.39505,23.7475,3.10799,11.42305,0.0199,0.0026,0.00957,13.34961,3.54608,0.4641,1.70574
0.39584,19.3661,3.14385,11.37467,0.01623,0.00263,0.00953,13.37631,2.90341,0.47133,1.70531
0.39663,17.4542,3.14311,11.32653,0.01462,0.00263,0.00949,13.40297,2.62721,0.4731,1.70487
0.39742,16.3333,3.14458,11.27855,0.01369,0.00263,0.00945,13.42963,2.46828,0.47521,1.70441
0.39821,19.0394,3.12005,11.23067,0.01595,0.00261,0.00941,13.45633,2.88868,0.47338,1.70393
0.399,16.7154,3.14736,11.18302,0.01401,0.00264,0.00937,13.48299,2.54614,0.47942,1.70343
0.39979,18.4458,3.15451,11.13552,0.01546,0.00264,0.00933,13.50965,2.82084,0.48241,1.70291
0.40058,18.8714,3.14341,11.08811,0.01581,0.00263,0.00929,13.53635,2.89734,0.48261,1.70237
0.40137,19.2767,3.10272,11.0409,0.01615,0.0026,0.00925,13.56301,2.97124,0.47824,1.7018
0.40216,13.9491,3.09704,10.99384,0.01169,0.0026,0.00921,13.58967,2.15853,0.47925,1.70122
0.40295,16.5648,3.14113,10.94685,0.01388,0.00263,0.00917,13.61637,2.57337,0.48798,1.70061
0.40374,19.5977,3.17143,10.90006,0.01642,0.00266,0.00913,13.64303,3.05647,0.49462,1.69998
0.40452,15.6241,3.14612,10.85339,0.01309,0.00264,0.00909,13.66969,2.44628,0.49259,1.69932
0.40531,13.4467,3.14754,10.80679,0.01127,0.00264,0.00906,13.69639,2.11359,0.49474,1.69864
0.4061,14.1887,3.19035,10.76036,0.01189,0.00267,0.00902,13.72305,2.23891,0.50342,1.69794
0.40689,8.73636,3.18096,10.71405,0.00732,0.00267,0.00898,13.74971,1.38392,0.50389,1.6972
0.40768,16.4407,3.21197,10.66779,0.01378,0.00269,0.00894,13.77641,2.61448,0.51078,1.69644
0.40847,12.6736,3.23138,10.62169,0.01062,0.00271,0.0089,13.80307,2.02323,0.51586,1.69566
0.40926,18.8393,3.23809,10.5757,0.01579,0.00271,0.00886,13.82973,3.01915,0.51893,1.69484
0.41005,11.949,3.23775,10.52973,0.01001,0.00271,0.00882,13.85643,1.92233,0.52088,1.694
0.41084,18.2147,3.28471,10.48392,0.01526,0.00275,0.00878,13.88309,2.94162,0.53047,1.69312
0.41163,10.5313,3.26732,10.4382,0.00882,0.00274,0.00875,13.90975,1.70731,0.52969,1.69222
0.41242,12.4606,3.29335,10.39249,0.01044,0.00276,0.00871,13.93644,2.02785,0.53596,1.69128
0.41321,21.9137,3.33147,10.34692,0.01836,0.00279,0.00867,13.96311,3.57992,0.54424,1.69032
0.414,19.0367,3.32871,10.30143,0.01595,0.00279,0.00863,13.98977,3.12181,0.54587,1.68932
0.41479,17.0019,3.32908,10.25594,0.01425,0.00279,0.00859,14.01646,2.79877,0.54802,1.68828
0.41558,12.7336,3.33681,10.21057,0.01067,0.0028,0.00856,14.04313,2.10413,0.55138,1.68722
0.41636,16.8516,3.3448,10.16527,0.01412,0.0028,0.00852,14.06979,2.79518,0.5548,1.68611
0.41715,17.9438,3.33932,10.11996,0.01504,0.0028,0.00848,14.09648,2.98765,0.556,1.68498
0.41794,15.5606,3.32589,10.07477,0.01304,0.00279,0.00844,14.12315,2.60065,0.55586,1.6838
0.41873,17.8172,3.36776,10.02963,0.01493,0.00282,0.0084,14.14981,2.98905,0.56498,1.68259
0.41952,9.5607,3.34853,9.98448,0.00801,0.00281,0.00837,14.1765,1.60998,0.56388,1.68135
0.42031,13.9816,3.3553,9.93944,0.01172,0.00281,0.00833,14.20317,2.36331,0.56715,1.68006
0.4211,16.7818,3.37075,9.89444,0.01406,0.00282,0.00829,14.22983,2.84728,0.5719,1.67874
0.42189,18.4054,3.39808,9.84942,0.01542,0.00285,0.00825,14.25652,3.13448,0.5787,1.67738
0.42268,10.2257,3.39288,9.8045,0.00857,0.00284,0.00822,14.28318,1.74798,0.57998,1.67598
0.42347,15.8761,3.47386,9.75962,0.0133,0.00291,0.00818,14.30985,2.724,0.59604,1.67454
0.42426,15.7741,3.52518,9.71471,0.01322,0.00295,0.00814,14.33654,2.71661,0.6071,1.67306
0.42505,20.4856,3.54774,9.66988,0.01716,0.00297,0.0081,14.3632,3.54115,0.61326,1.67154
0.42584,13.1268,3.60435,9.62509,0.011,0.00302,0.00806,14.38987,2.27754,0.62536,1.66998
0.42663,14.6738,3.60609,9.58026,0.0123,0.00302,0.00803,14.41656,2.5554,0.62799,1.66838
0.42741,15.5433,3.62881,9.53551,0.01302,0.00304,0.00799,14.44322,2.71684,0.63429,1.66673
0.4282,18.6506,4.19077,9.49078,0.01563,0.00351,0.00795,14.46989,3.27202,0.73522,1.66504
0.42899,18.7989,4.43877,9.446,0.01575,0.00372,0.00791,14.49658,3.31022,0.7816,1.66331
0.42978,19.5222,4.67514,9.4013,0.01636,0.00392,0.00788,14.52324,3.45024,0.82626,1.66153
0.43057,14.2124,4.65706,9.3566,0.01191,0.0039,0.00784,14.54991,2.52105,0.82609,1.65971
0.43136,16.5284,4.74723,9.31186,0.01385,0.00398,0.0078,14.5766,2.94264,0.84517,1.65784
0.43215,12.8444,4.86757,9.26717,0.01076,0.00408,0.00776,14.60326,2.29513,0.86977,1.65592
0.43294,13.0238,4.88263,9.22248,0.01091,0.00409,0.00773,14.62992,2.33569,0.87565,1.65396
0.43373,8.75112,4.98639,9.17774,0.00733,0.00418,0.00769,14.65662,1.57516,0.89753,1.65195
0.43452,14.5717,5.16908,9.13304,0.01221,0.00433,0.00765,14.68328,2.63239,0.9338,1.64989
0.43531,15.7343,5.32556,9.08833,0.01318,0.00446,0.00762,14.70994,2.85274,0.96556,1.64778
0.4361,7.94436,5.31815,9.04355,0.00666,0.00446,0.00758,14.73664,1.4456,0.96772,1.64562
0.43689,11.8049,5.61894,8.99881,0.00989,0.00471,0.00754,14.7633,2.15587,1.02616,1.64341
0.43768,14.7435,5.61123,8.95405,0.01235,0.0047,0.0075,14.78996,2.70226,1.02846,1.64114
0.43847,10.792,5.65587,8.9092,0.00904,0.00474,0.00747,14.81666,1.98516,1.04038,1.63882
0.43926,15.0788,5.85659,8.86439,0.01263,0.00491,0.00743,14.84332,2.7837,1.08119,1.63645
0.44004,14.1646,5.94879,8.81954,0.01187,0.00498,0.00739,14.86998,2.62433,1.10216,1.63403
0.44083,19.3757,6.14986,8.77461,0.01623,0.00515,0.00735,14.89668,3.60271,1.1435,1.63155
0.44162,20.6188,6.27154,8.72969,0.01728,0.00525,0.00731,14.92334,3.84759,1.17031,1.62901
0.44241,22.8632,6.34303,8.68473,0.01916,0.00531,0.00728,14.95,4.28166,1.18788,1.62642
0.4432,7.06162,6.5111,8.63967,0.00592,0.00546,0.00724,14.9767,1.32718,1.22371,1.62376
0.44399,12.805,6.55408,8.59461,0.01073,0.00549,0.0072,15.00336,2.41518,1.23618,1.62105
0.44478,25.423,8.81369,8.54951,0.0213,0.00739,0.00716,15.03002,4.81215,1.66828,1.61828
0.44504,1.36276,18.0356,8.53446,0.00114,0.01511,0.00715,15.03891,0.25825,3.41788,1.61734