File: 2025/starling_2025/figures/experimental_comparison/saxs_scattering/experiment/anac046/mff_out.csv
#File Plotted Below: anac046_clean.dat,,,,,,,,,,
,,,,,,,,,,
    #Fit from 0.01-0.15 with polymer MFF,,,,,,,,,,
#Initial search parameter for I0 = 17648.3,,,,,,,,,,
#Initial search parameter for Rg = 30,,,,,,,,,,
#Initial search parameter for nu = 0.499881,,,,,,,,,,
#BestFit for I0 = 18559.1 +- 21.43241,,,,,,,,,,
#BestFit for I(0)/I0 = 1.00000 +- 0.00115,,,,,,,,,,
#BestFit for Rg = 37.68252 +- 0.04025,,,,,,,,,,
#BestFit for nu = 0.57603 +- 0.00118,,,,,,,,,,
#BestFit reduced chisquared = 1.22512,,,,,,,,,,
#-------------,,,,,,,,,,
#-------------,,,,,,,,,,
,,,,,,,,,,
    #q,I(q),Error,fit,I(q)/I0,Error/I0,fit/I0,qRg,((qRg)^2)I(q)/I0,((qRg)^2)*Error/I0,((qRg)^2)*fit/I0
0.00308,5062,3506.166,18494.9,0.27275,0.18892,0.99654,0.11594,0.00367,0.00254,0.0134
0.00419,18491.7,1541.433,18424.2,0.99637,0.08306,0.99273,0.15772,0.02478,0.00207,0.02469
0.00529,19418.8,823.9397,18330,1.04632,0.0444,0.98765,0.1995,0.04164,0.00177,0.03931
0.0064,18690.3,497.515,18213.4,1.00707,0.02681,0.98137,0.24127,0.05862,0.00156,0.05713
0.00751,18193.74,341.492,18075.5,0.98031,0.0184,0.97394,0.28305,0.07854,0.00147,0.07803
0.00862,17826.47,258.5944,17917.5,0.96052,0.01393,0.96543,0.32483,0.10135,0.00147,0.10187
0.00973,18134.33,211.0302,17740.3,0.97711,0.01137,0.95588,0.36661,0.13133,0.00153,0.12847
0.01084,17427.12,175.7948,17545.2,0.93901,0.00947,0.94537,0.40839,0.15661,0.00158,0.15767
0.01195,17396.68,155.9169,17333.2,0.93737,0.0084,0.93395,0.45016,0.18995,0.0017,0.18926
0.01305,17505.25,143.1359,17105.4,0.94322,0.00771,0.92167,0.49194,0.22826,0.00187,0.22305
0.01416,16793.97,129.2663,16862.9,0.90489,0.00697,0.90861,0.53372,0.25776,0.00198,0.25882
0.01527,16659.27,121.0067,16606.9,0.89763,0.00652,0.89481,0.5755,0.29729,0.00216,0.29636
0.01638,16536.66,113.5483,16338.3,0.89103,0.00612,0.88034,0.61728,0.33951,0.00233,0.33544
0.01749,16095.89,106.5303,16058.4,0.86728,0.00574,0.86526,0.65906,0.37671,0.00249,0.37583
0.0186,15778.67,102.4051,15768.2,0.85018,0.00552,0.84962,0.70083,0.41758,0.00271,0.41731
0.01971,15480.62,98.30212,15468.8,0.83412,0.0053,0.83349,0.74261,0.45999,0.00292,0.45964
0.02082,15271.13,93.23362,15161.3,0.82284,0.00502,0.81692,0.78439,0.50626,0.00309,0.50262
0.02192,14898.34,93.53417,14846.8,0.80275,0.00504,0.79997,0.82617,0.54792,0.00344,0.54602
0.02303,14673.65,93.58744,14526.4,0.79064,0.00504,0.78271,0.86795,0.59561,0.0038,0.58964
0.02414,14123.04,91.17332,14201.2,0.76098,0.00491,0.76519,0.90972,0.62978,0.00407,0.63327
0.02525,13818.57,90.1795,13872.4,0.74457,0.00486,0.74747,0.9515,0.6741,0.0044,0.67673
0.02636,13491.41,88.61006,13540.9,0.72694,0.00477,0.72961,0.99328,0.7172,0.00471,0.71983
0.02747,13190.48,85.86153,13208,0.71073,0.00463,0.71167,1.03506,0.76143,0.00496,0.76244
0.02858,12858.78,81.08556,12874.3,0.69285,0.00437,0.69369,1.07683,0.80342,0.00507,0.80439
0.02969,12498.13,76.69053,12540.7,0.67342,0.00413,0.67571,1.11861,0.84265,0.00517,0.84552
0.03079,12224.67,73.98256,12207.8,0.65869,0.00399,0.65778,1.16039,0.88693,0.00537,0.8857
0.0319,11768.55,73.23013,11876.4,0.63411,0.00395,0.63992,1.20217,0.91643,0.0057,0.92482
0.03301,11463.3,72.90748,11547.2,0.61766,0.00393,0.62219,1.24395,0.95578,0.00608,0.96278
0.03412,11196.02,72.5795,11221,0.60326,0.00391,0.60461,1.28572,0.99724,0.00646,0.99947
0.03523,10779.06,71.25373,10898.5,0.5808,0.00384,0.58723,1.3275,1.02351,0.00677,1.03485
0.03634,10540.23,69.80913,10580.3,0.56793,0.00376,0.57009,1.36928,1.06482,0.00705,1.06887
0.03745,10183.88,69.01102,10267.3,0.54873,0.00372,0.55322,1.41106,1.09256,0.0074,1.10151
0.03855,9908.186,67.91133,9960.11,0.53387,0.00366,0.53667,1.45284,1.12686,0.00772,1.13277
0.03966,9584.697,65.98809,9659.51,0.51644,0.00356,0.52047,1.49462,1.15367,0.00794,1.16267
0.04077,9254.809,65.93496,9366.18,0.49867,0.00355,0.50467,1.53639,1.1771,0.00839,1.19127
0.04188,9075.171,64.96743,9080.26,0.48899,0.0035,0.48926,1.57817,1.21788,0.00872,1.21856
0.04299,8764.415,65.13932,8801.77,0.47224,0.00351,0.47426,1.61995,1.23928,0.00921,1.24456
0.0441,8449.655,66.08199,8530.75,0.45528,0.00356,0.45965,1.66173,1.25719,0.00983,1.26926
0.04521,8086.176,66.3743,8267.2,0.4357,0.00358,0.44545,1.70351,1.26437,0.01038,1.29267
0.04632,8006.108,65.707,8011.13,0.43138,0.00354,0.43165,1.74528,1.314,0.01078,1.31483
0.04742,7758.175,63.24551,7762.56,0.41802,0.00341,0.41826,1.78706,1.335,0.01088,1.33576
0.04853,7547.419,61.77301,7521.53,0.40667,0.00333,0.40527,1.82884,1.36016,0.01113,1.3555
0.04964,7299.104,59.72624,7288,0.39329,0.00322,0.39269,1.87062,1.3762,0.01126,1.37411
0.05075,7026.128,59.19851,7062.01,0.37858,0.00319,0.38051,1.9124,1.38457,0.01167,1.39164
0.05186,6837.354,57.76625,6843.57,0.36841,0.00311,0.36874,1.95417,1.40688,0.01189,1.40816
0.05297,6556.998,56.97973,6632.7,0.3533,0.00307,0.35738,1.99595,1.4075,0.01223,1.42375
0.05408,6387.259,56.16448,6429.38,0.34416,0.00303,0.34643,2.03773,1.42906,0.01257,1.43848
0.05518,6255.701,55.13518,6233.47,0.33707,0.00297,0.33587,2.07951,1.4576,0.01285,1.45242
0.05629,5972.307,54.30082,6044.72,0.3218,0.00293,0.3257,2.12128,1.44805,0.01317,1.4656
0.0574,5925.875,53.79328,5862.94,0.3193,0.0029,0.31591,2.16306,1.49394,0.01356,1.47807
0.05851,5826.016,53.06822,5687.92,0.31392,0.00286,0.30648,2.20484,1.52605,0.0139,1.48988
0.05962,5647.695,52.73749,5519.44,0.30431,0.00284,0.2974,2.24662,1.53594,0.01434,1.50106
0.06073,5318.655,51.8883,5357.29,0.28658,0.0028,0.28866,2.2884,1.50075,0.01464,1.51165
0.06184,5203.506,51.11402,5201.26,0.28037,0.00275,0.28025,2.33018,1.52236,0.01495,1.5217
0.06295,5063.634,50.34085,5051.15,0.27284,0.00271,0.27217,2.37195,1.53503,0.01526,1.53124
0.06405,4974.476,50.09536,4906.71,0.26803,0.0027,0.26438,2.41373,1.56159,0.01573,1.54032
0.06516,4786.379,49.48757,4767.76,0.2579,0.00267,0.2569,2.45551,1.55501,0.01608,1.54896
0.06627,4639.245,48.89756,4634.07,0.24997,0.00263,0.24969,2.49729,1.55893,0.01643,1.55719
0.06738,4604.634,48.31536,4505.44,0.24811,0.0026,0.24276,2.53907,1.59951,0.01678,1.56505
0.06849,4374.965,47.63231,4381.69,0.23573,0.00257,0.23609,2.58085,1.57015,0.01709,1.57256
0.0696,4242.274,47.19142,4262.64,0.22858,0.00254,0.22968,2.62262,1.57222,0.01749,1.57976
0.07071,4119.093,46.32132,4148.11,0.22194,0.0025,0.22351,2.6644,1.57559,0.01772,1.58669
0.07182,3926.686,46.2097,4037.93,0.21158,0.00249,0.21757,2.70618,1.54946,0.01823,1.59336
0.07292,3986.167,45.62019,3931.92,0.21478,0.00246,0.21186,2.74796,1.62188,0.01856,1.5998
0.07403,3902.212,45.40988,3829.91,0.21026,0.00245,0.20636,2.78973,1.63636,0.01904,1.60604
0.07514,3753.467,44.8937,3731.71,0.20224,0.00242,0.20107,2.83151,1.62148,0.01939,1.61209
0.07625,3689.826,44.00757,3637.17,0.19881,0.00237,0.19598,2.87329,1.64138,0.01958,1.61795
0.07736,3567.216,44.12404,3546.1,0.19221,0.00238,0.19107,2.91507,1.63331,0.0202,1.62364
0.07847,3520.91,43.14187,3458.32,0.18971,0.00232,0.18634,2.95685,1.65865,0.02032,1.62916
0.07958,3455.455,43.035,3373.65,0.18619,0.00232,0.18178,2.99862,1.67414,0.02085,1.63451
0.08068,3430.32,44.10215,3291.94,0.18483,0.00238,0.17738,3.0404,1.7086,0.02197,1.63967
0.08179,3180.311,44.53611,3213.07,0.17136,0.0024,0.17313,3.08218,1.6279,0.0228,1.64467
0.0829,3192.584,45.30116,3136.93,0.17202,0.00244,0.16902,3.12396,1.67879,0.02382,1.64952
0.08401,3089.197,45.70839,3063.44,0.16645,0.00246,0.16506,3.16574,1.66816,0.02468,1.65425
0.08512,3105.033,46.1948,2992.5,0.1673,0.00249,0.16124,3.20751,1.72126,0.02561,1.65887
0.08623,2996.143,46.05964,2923.98,0.16144,0.00248,0.15755,3.24929,1.70444,0.0262,1.66339
0.08734,2935.685,44.0075,2857.81,0.15818,0.00237,0.15398,3.29107,1.71327,0.02568,1.66783
0.08845,2794.081,42.93853,2793.89,0.15055,0.00231,0.15054,3.33285,1.67229,0.0257,1.67218
0.08955,2756.279,42.0634,2732.1,0.14851,0.00227,0.14721,3.37463,1.69129,0.02581,1.67645
0.09066,2652.236,41.65639,2672.36,0.14291,0.00224,0.14399,3.41641,1.66799,0.0262,1.68065
0.09177,2590.111,40.99517,2614.57,0.13956,0.00221,0.14088,3.45818,1.669,0.02642,1.68476
0.09288,2637.947,42.25165,2558.62,0.14214,0.00228,0.13786,3.49996,1.74114,0.02789,1.68878
0.09399,2554.262,43.16122,2504.42,0.13763,0.00233,0.13494,3.54174,1.7264,0.02917,1.69271
0.0951,2445.009,43.23854,2451.9,0.13174,0.00233,0.13211,3.58352,1.69177,0.02992,1.69654
0.09621,2462.669,41.52413,2401.02,0.13269,0.00224,0.12937,3.6253,1.74396,0.02941,1.7003
0.09731,2341.621,40.72311,2351.72,0.12617,0.00219,0.12672,3.66707,1.69667,0.02951,1.70399
0.09842,2269.405,39.75067,2303.94,0.12228,0.00214,0.12414,3.70885,1.68203,0.02946,1.70763
0.09953,2267.147,39.29185,2257.64,0.12216,0.00212,0.12165,3.75063,1.71842,0.02978,1.71121
0.10064,2239.521,39.28156,2212.73,0.12067,0.00212,0.11923,3.79241,1.73551,0.03044,1.71475
0.10175,2197.905,38.42215,2169.18,0.11843,0.00207,0.11688,3.8342,1.741,0.03043,1.71825
0.10286,2105.641,38.24628,2126.96,0.11346,0.00206,0.1146,3.87595,1.70444,0.03096,1.7217
0.10397,2115.446,38.40504,2085.95,0.11398,0.00207,0.11239,3.91774,1.74951,0.03176,1.72511
0.10508,2039.625,37.74217,2046.13,0.1099,0.00203,0.11025,3.95953,1.72298,0.03188,1.72847
0.10618,2020.895,37.55998,2007.48,0.10889,0.00202,0.10817,4.00128,1.74335,0.0324,1.73178
0.10729,1981.482,37.29394,1969.88,0.10677,0.00201,0.10614,4.04307,1.74524,0.03285,1.73502
0.1084,1964.583,37.16367,1933.32,0.10586,0.002,0.10417,4.08486,1.76631,0.03341,1.73821
0.10951,1888.148,36.49756,1897.82,0.10174,0.00197,0.10226,4.12661,1.73247,0.03349,1.74134
0.11062,1777.641,36.42443,1863.27,0.09578,0.00196,0.1004,4.1684,1.66428,0.0341,1.74444
0.11173,1807.232,36.24626,1829.67,0.09738,0.00195,0.09859,4.21019,1.72608,0.03462,1.74751
0.11284,1822.305,35.80897,1796.99,0.09819,0.00193,0.09683,4.25198,1.7752,0.03488,1.75054
0.11395,1845.192,35.8047,1765.23,0.09942,0.00193,0.09511,4.29373,1.83297,0.03557,1.75354
0.11505,1707.893,35.23716,1734.3,0.09202,0.0019,0.09345,4.33552,1.72976,0.03569,1.75651
0.11616,1724.262,35.19188,1704.2,0.09291,0.0019,0.09183,4.37731,1.78017,0.03633,1.75946
0.11727,1697.202,34.81294,1674.92,0.09145,0.00188,0.09025,4.41907,1.78582,0.03663,1.76238
0.11838,1733.347,34.60081,1646.38,0.0934,0.00186,0.08871,4.46086,1.85851,0.0371,1.76526
0.11949,1599.494,34.61537,1618.57,0.08618,0.00187,0.08721,4.50265,1.74727,0.03781,1.76812
0.1206,1600.079,34.21241,1591.49,0.08622,0.00184,0.08575,4.5444,1.78048,0.03807,1.77093
0.12171,1566.842,33.94471,1565.07,0.08442,0.00183,0.08433,4.58619,1.77571,0.03847,1.7737
0.12282,1539.534,33.72437,1539.31,0.08295,0.00182,0.08294,4.62798,1.7767,0.03892,1.77644
0.12392,1536.353,33.40452,1514.21,0.08278,0.0018,0.08159,4.66973,1.80517,0.03925,1.77915
0.12503,1508.885,33.18044,1489.72,0.0813,0.00179,0.08027,4.71152,1.80477,0.03969,1.78184
0.12614,1445.131,33.17041,1465.83,0.07787,0.00179,0.07898,4.75331,1.75931,0.04038,1.78451
0.12725,1439.19,32.89188,1442.55,0.07755,0.00177,0.07773,4.79506,1.78299,0.04075,1.78715
0.12836,1415.621,32.68406,1419.81,0.07628,0.00176,0.0765,4.83685,1.78449,0.0412,1.78978
0.12947,1384.011,32.7576,1397.62,0.07457,0.00177,0.07531,4.87864,1.77492,0.04201,1.79238
0.13058,1347.109,32.5807,1375.96,0.07258,0.00176,0.07414,4.92043,1.75732,0.0425,1.79495
0.13168,1377.074,32.23078,1354.82,0.0742,0.00174,0.073,4.96218,1.82703,0.04276,1.7975
0.13279,1320.684,32.36305,1334.15,0.07116,0.00174,0.07189,5.00397,1.78185,0.04366,1.80002
0.1339,1312.651,32.03972,1313.95,0.07073,0.00173,0.0708,5.04576,1.80072,0.04395,1.8025
0.13501,1272.407,31.83568,1294.23,0.06856,0.00172,0.06974,5.08752,1.77452,0.0444,1.80495
0.13612,1272.52,31.74856,1274.93,0.06857,0.00171,0.0687,5.12931,1.80395,0.04501,1.80737
0.13723,1227.435,31.38336,1256.07,0.06614,0.00169,0.06768,5.1711,1.7685,0.04522,1.80976
0.13834,1220.977,31.28692,1237.64,0.06579,0.00169,0.06669,5.21285,1.78772,0.04581,1.81212
0.13945,1215.385,32.04982,1219.61,0.06549,0.00173,0.06571,5.25464,1.80818,0.04768,1.81446
0.14055,1177.383,32.69525,1201.97,0.06344,0.00176,0.06476,5.29643,1.77962,0.04942,1.81678
0.14166,1177.127,32.96157,1184.73,0.06343,0.00178,0.06384,5.33818,1.80739,0.05061,1.81907
0.14277,1143.19,33.75206,1167.85,0.0616,0.00182,0.06293,5.37997,1.78287,0.05264,1.82134
0.14388,1162.264,33.53029,1151.33,0.06262,0.00181,0.06204,5.42176,1.84089,0.05311,1.82358
0.14499,1139.365,33.87931,1135.18,0.06139,0.00183,0.06117,5.46351,1.83252,0.05449,1.82579
0.1461,1115.545,32.53619,1119.34,0.06011,0.00175,0.06031,5.5053,1.82176,0.05313,1.82796
0.14721,1136.581,31.78441,1103.83,0.06124,0.00171,0.05948,5.54709,1.8844,0.0527,1.8301
0.14831,1073.907,31.51835,1088.65,0.05786,0.0017,0.05866,5.58885,1.8074,0.05305,1.83221
0.14942,1059.673,31.03243,1073.77,0.0571,0.00167,0.05786,5.63064,1.81021,0.05301,1.83429
0.15053,1111.305,30.97713,1059.18,0.05988,0.00167,0.05707,5.67243,1.9267,0.05371,1.83633
0.15164,1077.036,31.00715,1044.89,0.05803,0.00167,0.0563,5.71421,1.8949,0.05455,1.83835
0.15275,1011.531,30.63645,1030.9,0.0545,0.00165,0.05555,5.75597,1.80575,0.05469,1.84034
0.15386,999.493,30.41445,1017.18,0.05385,0.00164,0.05481,5.79776,1.81027,0.05509,1.8423
0.15497,962.707,30.21032,1003.73,0.05187,0.00163,0.05408,5.83955,1.76887,0.05551,1.84423
0.15608,997.402,30.13072,990.548,0.05374,0.00162,0.05337,5.8813,1.85891,0.05616,1.84614
0.15718,955.794,29.8267,977.6134,0.0515,0.00161,0.05268,5.92309,1.80677,0.05638,1.84802
0.15829,967.16,29.64719,964.927,0.05211,0.0016,0.05199,5.96488,1.85415,0.05684,1.84987
0.1594,914.012,29.43122,952.492,0.04925,0.00159,0.05132,6.00663,1.77687,0.05722,1.85168
0.16051,959.039,29.23943,940.279,0.05167,0.00158,0.05066,6.04842,1.89044,0.05764,1.85346
0.16162,923.665,29.27237,928.294,0.04977,0.00158,0.05002,6.09021,1.84596,0.0585,1.85521
0.16273,899.052,29.1039,916.543,0.04844,0.00157,0.04939,6.13196,1.82149,0.05896,1.85693
0.16384,906.253,29.01074,905.001,0.04883,0.00156,0.04876,6.17375,1.86119,0.05958,1.85862
0.16495,928.274,28.89951,893.673,0.05002,0.00156,0.04815,6.21554,1.93231,0.06016,1.86028
0.16605,858.552,28.72674,882.565,0.04626,0.00155,0.04755,6.2573,1.81127,0.0606,1.86193
0.16716,860.64,28.70255,871.651,0.04637,0.00155,0.04697,6.29909,1.84,0.06136,1.86355
0.16827,897.654,28.59038,860.937,0.04837,0.00154,0.04639,6.34088,1.94469,0.06194,1.86514
0.16938,827.166,28.24436,850.428,0.04457,0.00152,0.04582,6.38263,1.81566,0.062,1.86672
0.17049,834.85,28.2611,840.1,0.04498,0.00152,0.04527,6.42442,1.8566,0.06285,1.86828
0.1716,846.466,28.46122,829.959,0.04561,0.00153,0.04472,6.46621,1.907,0.06412,1.86981
0.17271,783.49,28.03451,819.998,0.04222,0.00151,0.04418,6.508,1.78801,0.06398,1.87133
0.17381,782.366,28.10216,810.223,0.04216,0.00151,0.04366,6.54975,1.80843,0.06496,1.87282
0.17492,812.075,28.07502,800.613,0.04376,0.00151,0.04314,6.59154,1.90113,0.06573,1.8743
0.17603,755.516,27.77092,791.172,0.04071,0.0015,0.04263,6.63333,1.79122,0.06584,1.87576
0.17714,815.999,27.90348,781.9061,0.04397,0.0015,0.04213,6.67508,1.95905,0.06699,1.8772
0.17825,792.622,27.71015,772.795,0.04271,0.00149,0.04164,6.71687,1.92683,0.06736,1.87863
0.17936,802.765,27.74183,763.843,0.04325,0.00149,0.04116,6.75866,1.97584,0.06828,1.88004
0.18047,728.89,27.56218,755.056,0.03927,0.00149,0.04068,6.80041,1.81625,0.06868,1.88145
0.18158,789.119,27.64828,746.413,0.04252,0.00149,0.04022,6.8422,1.99057,0.06974,1.88284
0.18268,716.591,27.63339,737.919,0.03861,0.00149,0.03976,6.88399,1.82976,0.07056,1.88422
0.18379,761.957,27.70728,729.579,0.04106,0.00149,0.03931,6.92575,1.96927,0.07161,1.88559
0.1849,750.553,27.73575,721.374,0.04044,0.00149,0.03887,6.96754,1.96328,0.07255,1.88695
0.18601,687.663,27.5215,713.308,0.03705,0.00148,0.03843,7.00933,1.82042,0.07286,1.8883
0.18712,689.767,27.38442,705.385,0.03717,0.00148,0.03801,7.05108,1.8478,0.07336,1.88964
0.18823,712.42,27.34287,697.587,0.03839,0.00147,0.03759,7.09287,1.93118,0.07412,1.89097
0.18934,720.425,27.14524,689.921,0.03882,0.00146,0.03717,7.13466,1.97596,0.07445,1.89229
0.19044,679.021,27.07138,682.388,0.03659,0.00146,0.03677,7.17641,1.88426,0.07512,1.8936
0.19155,710.103,26.89298,674.974,0.03826,0.00145,0.03637,7.2182,1.99352,0.0755,1.89491
0.19266,646.803,26.83141,667.683,0.03485,0.00145,0.03598,7.25999,1.8369,0.0762,1.8962
0.19377,699.534,26.82864,660.511,0.03769,0.00145,0.03559,7.30178,2.0096,0.07707,1.89749
0.19488,720.301,26.73148,653.463,0.03881,0.00144,0.03521,7.34353,2.09299,0.07767,1.89878
0.19599,672.758,26.67057,646.524,0.03625,0.00144,0.03484,7.38532,1.97715,0.07838,1.90005
0.1971,649.677,26.4182,639.696,0.03501,0.00142,0.03447,7.42711,1.93099,0.07852,1.90132
0.19821,637.654,27.01437,632.983,0.03436,0.00146,0.03411,7.46886,1.91662,0.0812,1.90258
0.19931,707.832,27.49136,626.371,0.03814,0.00148,0.03375,7.51065,2.15143,0.08356,1.90384
0.20042,629.886,28.00506,619.863,0.03394,0.00151,0.0334,7.55244,1.93588,0.08607,1.90508
0.20153,628.684,28.34388,613.463,0.03387,0.00153,0.03305,7.5942,1.95361,0.08808,1.90631
0.20264,637.358,28.51643,607.157,0.03434,0.00154,0.03271,7.63599,2.00242,0.08959,1.90754
0.20375,653.409,28.89602,600.949,0.03521,0.00156,0.03238,7.67778,2.07538,0.09178,1.90876
0.20486,638.853,27.7165,594.844,0.03442,0.00149,0.03205,7.71953,2.05128,0.08899,1.90997
0.20597,661.183,27.43657,588.827,0.03563,0.00148,0.03173,7.76132,2.14603,0.08905,1.91118
0.20708,644.314,27.16069,582.902,0.03472,0.00146,0.03141,7.80311,2.11385,0.08911,1.91238
0.20818,610.312,27.11483,577.0732,0.03288,0.00146,0.03109,7.84486,2.02379,0.08991,1.91357
0.20929,643.047,26.94073,571.327,0.03465,0.00145,0.03078,7.88665,2.15511,0.09029,1.91475
0.2104,610.343,26.78116,565.668,0.03289,0.00144,0.03048,7.92844,2.06724,0.09071,1.91593
0.21151,575.938,26.54722,560.0982,0.03103,0.00143,0.03018,7.97019,1.97131,0.09087,1.9171
0.21262,604.035,26.48426,554.606,0.03255,0.00143,0.02988,8.01198,2.08922,0.0916,1.91826
0.21373,603.673,26.58948,549.194,0.03253,0.00143,0.02959,8.05377,2.10981,0.09293,1.91941
0.21484,583.726,26.30822,543.862,0.03145,0.00142,0.0293,8.09556,2.06132,0.0929,1.92055
0.21594,543.727,26.1127,538.613,0.0293,0.00141,0.02902,8.13731,1.93993,0.09317,1.92168
0.21705,603.114,26.2019,533.4349,0.0325,0.00141,0.02874,8.1791,2.17397,0.09445,1.92281
0.21816,589.915,25.97106,528.332,0.03179,0.0014,0.02847,8.22089,2.14818,0.09457,1.92392
0.21927,580.818,25.94607,523.308,0.0313,0.0014,0.0282,8.26265,2.13659,0.09544,1.92503
0.22038,591.278,25.84216,518.3515,0.03186,0.00139,0.02793,8.30444,2.19712,0.09603,1.92614
0.22149,588.982,25.82568,513.466,0.03174,0.00139,0.02767,8.34623,2.21067,0.09693,1.92723
0.2226,546.356,25.56189,508.654,0.02944,0.00138,0.02741,8.38798,2.07125,0.09691,1.92832
0.22371,549.175,25.55,503.906,0.02959,0.00138,0.02715,8.42977,2.10273,0.09783,1.92941
0.22481,495.957,25.53795,499.225,0.02672,0.00138,0.0269,8.47156,1.91784,0.09875,1.93048
0.22592,526.011,25.45792,494.614,0.02834,0.00137,0.02665,8.51331,2.05416,0.09942,1.93155
0.22703,551.166,25.63765,490.062,0.0297,0.00138,0.02641,8.5551,2.17358,0.1011,1.93261
0.22814,535.243,25.17875,485.5732,0.02884,0.00136,0.02616,8.59689,2.13145,0.10027,1.93366
0.22925,548.12,25.22742,481.15,0.02953,0.00136,0.02593,8.63864,2.20399,0.10144,1.9347
0.23036,544.766,25.13777,476.7841,0.02935,0.00135,0.02569,8.68043,2.21175,0.10206,1.93574
0.23147,517.276,25.18517,472.4776,0.02787,0.00136,0.02546,8.72222,2.12041,0.10324,1.93677
0.23257,553.18,25.40555,468.233,0.02981,0.00137,0.02523,8.76397,2.28934,0.10514,1.93779
0.23368,528.329,25.34335,464.043,0.02847,0.00137,0.025,8.80576,2.2074,0.10589,1.93881
0.23479,538.916,25.50258,459.909,0.02904,0.00137,0.02478,8.84755,2.27305,0.10757,1.93982
0.2359,515.345,25.15464,455.83,0.02777,0.00136,0.02456,8.88934,2.19422,0.1071,1.94082
0.23701,511.214,25.06632,451.809,0.02755,0.00135,0.02434,8.9311,2.19712,0.10773,1.94181
0.23812,458.072,24.9763,447.837,0.02468,0.00135,0.02413,8.97289,1.98719,0.10835,1.9428
0.23923,486.162,24.97728,443.918,0.0262,0.00135,0.02392,9.01468,2.12875,0.10937,1.94377
0.24034,496.352,24.82052,440.053,0.02674,0.00134,0.02371,9.05643,2.19354,0.10969,1.94474
0.24144,547.034,24.81808,436.234,0.02948,0.00134,0.02351,9.09822,2.43989,0.11069,1.94569
0.24255,463.081,24.75141,432.465,0.02495,0.00133,0.0233,9.14001,2.08445,0.11141,1.94664
0.24366,446.557,24.55898,428.748,0.02406,0.00132,0.0231,9.18176,2.02848,0.11156,1.94758
0.24477,445.616,24.4836,425.075,0.02401,0.00132,0.0229,9.22355,2.04268,0.11223,1.94852
0.24588,466.652,24.52299,421.449,0.02514,0.00132,0.02271,9.26534,2.15853,0.11343,1.94944
0.24699,498.997,24.32627,417.872,0.02689,0.00131,0.02252,9.30709,2.32899,0.11354,1.95036
0.2481,436.224,24.48268,414.337,0.0235,0.00132,0.02233,9.34888,2.05434,0.1153,1.95126
0.24921,412.177,24.45391,410.847,0.02221,0.00132,0.02214,9.39067,1.95848,0.11619,1.95216
0.25031,438.384,24.32503,407.404,0.02362,0.00131,0.02195,9.43242,2.10157,0.11661,1.95305
0.25142,460.014,24.39189,404,0.02479,0.00131,0.02177,9.47421,2.22485,0.11797,1.95393
0.25253,445.449,24.28993,400.638,0.024,0.00131,0.02159,9.516,2.17345,0.11852,1.95481
0.25364,461.172,24.27261,397.317,0.02485,0.00131,0.02141,9.55779,2.26997,0.11947,1.95567
0.25475,464.768,24.19535,394.04,0.02504,0.0013,0.02123,9.59955,2.3077,0.12014,1.95652
0.25586,458.954,24.1105,390.8,0.02473,0.0013,0.02106,9.64134,2.29872,0.12076,1.95737
0.25697,483.661,24.59878,387.6001,0.02606,0.00133,0.02088,9.68313,2.44351,0.12428,1.9582
0.25807,454.21,25.2371,384.441,0.02447,0.00136,0.02071,9.72488,2.31455,0.1286,1.95903
0.25918,456.986,25.55225,381.318,0.02462,0.00138,0.02055,9.76667,2.34876,0.13133,1.95985
0.26029,455.177,25.7296,378.233,0.02453,0.00139,0.02038,9.80846,2.35952,0.13338,1.96066
0.2614,455.706,26.14841,375.187,0.02455,0.00141,0.02022,9.85021,2.38242,0.1367,1.96147
0.26251,416.803,26.08892,372.175,0.02246,0.00141,0.02005,9.892,2.19756,0.13755,1.96226
0.26362,443.34,25.48523,369.199,0.02389,0.00137,0.01989,9.93379,2.35727,0.13551,1.96305
0.26473,444.494,25.00042,366.26,0.02395,0.00135,0.01973,9.97554,2.38331,0.13405,1.96384
0.26583,401.321,24.85813,363.354,0.02162,0.00134,0.01958,10.01733,2.16989,0.1344,1.96461
0.26694,436.745,24.71782,360.482,0.02353,0.00133,0.01942,10.05912,2.38117,0.13476,1.96538
0.26805,429.627,24.62881,357.646,0.02315,0.00133,0.01927,10.10087,2.36185,0.1354,1.96614
0.26916,384.057,24.39413,354.841,0.02069,0.00131,0.01912,10.14266,2.12884,0.13522,1.96689
0.27027,392.35,24.05586,352.069,0.02114,0.0013,0.01897,10.18445,2.19276,0.13444,1.96764
0.27138,460.646,24.25935,349.331,0.02482,0.00131,0.01882,10.22621,2.59561,0.13669,1.96838
0.27249,391.589,24.04461,346.623,0.0211,0.0013,0.01868,10.268,2.22456,0.13659,1.96911
0.2736,466.024,23.97112,343.946,0.02511,0.00129,0.01853,10.30979,2.66901,0.13729,1.96984
0.27471,400.729,24.00702,341.3,0.02159,0.00129,0.01839,10.35158,2.3137,0.13861,1.97057
0.27581,419.4,23.83115,338.687,0.0226,0.00128,0.01825,10.39333,2.44107,0.13871,1.97129
0.27692,417.04,23.80063,336.101,0.02247,0.00128,0.01811,10.43512,2.44689,0.13965,1.972
0.27803,413.086,23.76745,333.546,0.02226,0.00128,0.01797,10.47691,2.44314,0.14057,1.97271
0.27914,402.082,23.73358,331.021,0.02166,0.00128,0.01784,10.51866,2.39705,0.14149,1.97342
0.28025,400.03,23.80665,328.523,0.02155,0.00128,0.0177,10.56045,2.40381,0.14306,1.97412
0.28136,398.993,23.69339,326.053,0.0215,0.00128,0.01757,10.60224,2.41659,0.1435,1.97481
0.28247,393.628,23.73728,323.614,0.02121,0.00128,0.01744,10.64399,2.40291,0.1449,1.97551
0.28357,379.419,23.61269,321.199,0.02044,0.00127,0.01731,10.68578,2.33439,0.14528,1.9762
0.28468,352.137,23.58253,318.812,0.01897,0.00127,0.01718,10.72757,2.18352,0.14623,1.97688
0.28579,442.043,23.52218,316.454,0.02382,0.00127,0.01705,10.76932,2.76238,0.14699,1.97756
0.2869,403.605,23.49767,314.12,0.02175,0.00127,0.01693,10.81111,2.54179,0.14798,1.97824
0.28801,387.488,23.4573,311.812,0.02088,0.00126,0.0168,10.8529,2.45919,0.14887,1.97892
0.28912,421.947,23.32449,309.5317,0.02274,0.00126,0.01668,10.89466,2.69853,0.14917,1.97959
0.29023,369.04,23.3883,307.275,0.01988,0.00126,0.01656,10.93645,2.37831,0.15073,1.98026
0.29134,379.925,23.28317,305.042,0.02047,0.00125,0.01644,10.97824,2.46721,0.1512,1.98092
0.29244,379.039,23.24409,302.8364,0.02042,0.00125,0.01632,11.01999,2.48021,0.1521,1.98159
0.29355,422.445,23.17779,300.653,0.02276,0.00125,0.0162,11.06178,2.78524,0.15281,1.98225
0.29466,418.117,23.22071,298.493,0.02253,0.00125,0.01608,11.10357,2.77757,0.15426,1.9829
0.29577,347.244,23.01824,296.3563,0.01871,0.00124,0.01597,11.14536,2.32416,0.15406,1.98356
0.29688,379.756,23.0848,294.245,0.02046,0.00124,0.01585,11.18711,2.56084,0.15567,1.98421
0.29799,368.389,23.07405,292.154,0.01985,0.00124,0.01574,11.2289,2.50279,0.15676,1.98486
0.2991,414.701,22.98484,290.086,0.02234,0.00124,0.01563,11.27069,2.83843,0.15732,1.9855
0.3002,381.871,22.9963,288.043,0.02058,0.00124,0.01552,11.31244,2.63313,0.15857,1.98615
0.30131,376.864,22.91103,286.019,0.02031,0.00123,0.01541,11.35423,2.61784,0.15915,1.98679
0.30242,334.996,22.89065,284.016,0.01805,0.00123,0.0153,11.39602,2.34417,0.16018,1.98743
0.30353,370.204,22.91009,282.037,0.01995,0.00123,0.0152,11.43778,2.60956,0.16149,1.98807
0.30464,361.67,22.7,280.077,0.01949,0.00122,0.01509,11.47957,2.56806,0.16118,1.98871
0.30575,349.346,22.74581,278.137,0.01882,0.00123,0.01499,11.52136,2.49865,0.16269,1.98934
0.30686,384.872,22.67131,276.22,0.02074,0.00122,0.01488,11.56311,2.77273,0.16333,1.98997
0.30797,371.445,22.64306,274.32,0.02001,0.00122,0.01478,11.6049,2.69538,0.16431,1.99059
0.30907,335.848,22.76884,272.44,0.0181,0.00123,0.01468,11.64669,2.45465,0.16641,1.99122
0.31018,379.035,22.67068,270.582,0.02042,0.00122,0.01458,11.68844,2.7902,0.16689,1.99184
0.31129,355.684,22.67957,268.74,0.01916,0.00122,0.01448,11.73023,2.63706,0.16815,1.99245
0.3124,390.007,22.55504,266.918,0.02101,0.00122,0.01438,11.77202,2.91217,0.16842,1.99307
0.31351,335.556,22.51766,265.115,0.01808,0.00121,0.01428,11.81377,2.52339,0.16933,1.99367
0.31462,347.525,22.43511,263.328,0.01873,0.00121,0.01419,11.85556,2.63192,0.16991,1.99427
0.31573,331.373,22.9427,261.5599,0.01785,0.00124,0.01409,11.89735,2.52732,0.17498,1.99487
0.31684,338.056,23.50509,259.809,0.01822,0.00127,0.014,11.93914,2.59643,0.18053,1.99546
0.31794,354.581,23.67583,258.076,0.01911,0.00128,0.01391,11.98089,2.74243,0.18312,1.99604
0.31905,384.171,24.14027,256.359,0.0207,0.0013,0.01381,12.02268,2.99206,0.18801,1.99661
0.32016,342.073,24.28739,254.658,0.01843,0.00131,0.01372,12.06447,2.68274,0.19048,1.99718
0.32127,321.715,24.51551,252.976,0.01733,0.00132,0.01363,12.10623,2.54057,0.1936,1.99774
0.32238,267.644,23.55049,251.308,0.01442,0.00127,0.01354,12.14802,2.12819,0.18726,1.99829
0.32349,354.481,23.48199,249.657,0.0191,0.00127,0.01345,12.18981,2.83811,0.18801,1.99884
0.3246,338.487,23.29141,248.023,0.01824,0.00125,0.01336,12.23156,2.72865,0.18776,1.99939
0.3257,285.327,22.98011,246.405,0.01537,0.00124,0.01328,12.27335,2.31585,0.18652,1.99994
0.32681,326.641,23.04186,244.802,0.0176,0.00124,0.01319,12.31514,2.66926,0.18829,2.00049
0.32792,355.132,22.97333,243.217,0.01914,0.00124,0.0131,12.35689,2.9218,0.18901,2.00104
0.32903,359.757,22.77446,241.6473,0.01938,0.00123,0.01302,12.39868,2.97991,0.18864,2.00159
0.33014,366.341,22.76597,240.093,0.01974,0.00123,0.01294,12.44047,3.05493,0.18985,2.00215
0.33125,312.631,22.71604,238.557,0.01685,0.00122,0.01285,12.48222,2.62457,0.1907,2.00271
0.33236,337.085,22.63667,237.034,0.01816,0.00122,0.01277,12.52401,2.84884,0.19131,2.00328
0.33347,366.606,22.58472,235.5281,0.01975,0.00122,0.01269,12.5658,3.11905,0.19215,2.00385
0.33457,379.093,22.56561,234.038,0.02043,0.00122,0.01261,12.60755,3.24676,0.19326,2.00443
0.33568,337.156,22.51697,232.562,0.01817,0.00121,0.01253,12.64934,2.90676,0.19413,2.00502
0.33679,331.58,22.3946,231.101,0.01787,0.00121,0.01245,12.69113,2.87761,0.19435,2.0056
0.3379,362.234,22.48683,229.654,0.01952,0.00121,0.01237,12.73292,3.16437,0.19644,2.0062
0.33901,310.44,22.33322,228.223,0.01673,0.0012,0.0123,12.77468,2.72973,0.19638,2.00679
0.34012,346.123,22.39279,226.803,0.01865,0.00121,0.01222,12.81647,3.06344,0.19819,2.00738
0.34123,323.75,22.22194,225.398,0.01744,0.0012,0.01214,12.85826,2.88414,0.19797,2.00796
0.34233,311.209,22.26982,224.006,0.01677,0.0012,0.01207,12.90001,2.79045,0.19968,2.00855
0.34344,291.425,22.19562,222.626,0.0157,0.0012,0.012,12.9418,2.63002,0.20031,2.00912
0.34455,314.53,22.07124,221.258,0.01695,0.00119,0.01192,12.98359,2.85689,0.20047,2.0097
0.34566,334.623,22.12173,219.903,0.01803,0.00119,0.01185,13.02534,3.05898,0.20223,2.01026
0.34677,335.997,21.97692,218.559,0.0181,0.00118,0.01178,13.06713,3.09128,0.20219,2.01081
0.34788,290.306,22.01407,217.226,0.01564,0.00119,0.0117,13.10892,2.68802,0.20383,2.01135
0.34899,315.472,21.97587,215.906,0.017,0.00118,0.01163,13.15067,2.93967,0.20478,2.01189
0.3501,297.845,21.99246,214.596,0.01605,0.00118,0.01156,13.19246,2.79309,0.20624,2.01241
0.3512,313.794,22.03831,213.297,0.01691,0.00119,0.01149,13.23425,2.96132,0.20798,2.01292
0.35231,314.063,22.10101,212.011,0.01692,0.00119,0.01142,13.276,2.98259,0.20989,2.01342
0.35342,322.057,21.99971,210.733,0.01735,0.00119,0.01135,13.31779,3.0778,0.21024,2.01391
0.35453,336.263,22.02105,209.467,0.01812,0.00119,0.01129,13.35958,3.23376,0.21177,2.01439
0.35564,303.107,22.03508,208.212,0.01633,0.00119,0.01122,13.40134,2.93315,0.21323,2.01486
0.35675,317.53,22.0196,206.966,0.01711,0.00119,0.01115,13.44313,3.09192,0.21441,2.01531
0.35786,320.23,21.97571,205.731,0.01725,0.00118,0.01109,13.48492,3.13762,0.21532,2.01576
0.35896,292.215,22.05986,204.505,0.01575,0.00119,0.01102,13.52671,2.88091,0.21748,2.01619
0.36007,311.825,21.97816,203.29,0.0168,0.00118,0.01095,13.56846,3.09324,0.21802,2.0166
0.36118,317.78,21.99233,202.084,0.01712,0.00118,0.01089,13.61025,3.17177,0.21951,2.01701
0.36229,304.388,22.04519,200.888,0.0164,0.00119,0.01082,13.65204,3.05678,0.22139,2.0174
0.3634,285.05,21.98292,199.702,0.01536,0.00118,0.01076,13.69379,2.88012,0.22211,2.01777
0.36451,327.87,21.98431,198.5239,0.01767,0.00118,0.0107,13.73558,3.33302,0.22349,2.01813
0.36562,299.057,21.98316,197.355,0.01611,0.00118,0.01063,13.77737,3.05864,0.22484,2.01848
0.36673,303.388,21.92918,196.196,0.01635,0.00118,0.01057,13.81912,3.12178,0.22564,2.0188
0.36783,313.851,21.97739,195.045,0.01691,0.00118,0.01051,13.86091,3.249,0.22751,2.01912
0.36894,290.023,22.04043,193.903,0.01563,0.00119,0.01045,13.9027,3.02046,0.22954,2.01941
0.37005,253.769,21.87803,192.77,0.01367,0.00118,0.01039,13.94445,2.65879,0.22922,2.01969
0.37116,283.473,22.07343,191.645,0.01527,0.00119,0.01033,13.98624,2.98783,0.23266,2.01996
0.37227,297.674,22.07365,190.528,0.01604,0.00119,0.01027,14.02803,3.15629,0.23405,2.0202
0.37338,319.32,21.99699,189.42,0.01721,0.00119,0.01021,14.06979,3.40599,0.23463,2.02042
0.37449,299.096,22.53007,188.319,0.01612,0.00121,0.01015,14.11158,3.20925,0.24174,2.02063
0.3756,324.447,22.91962,187.226,0.01748,0.00123,0.01009,14.15337,3.50192,0.24738,2.02082
0.3767,289.188,23.2256,186.142,0.01558,0.00125,0.01003,14.19512,3.13979,0.25217,2.02099
0.37781,259.362,23.45862,185.065,0.01397,0.00126,0.00997,14.23691,2.83257,0.2562,2.02114
0.37892,278.975,23.82575,183.995,0.01503,0.00128,0.00991,14.2787,3.06468,0.26174,2.02128
0.38003,262.327,23.98993,182.934,0.01413,0.00129,0.00986,14.32049,2.89868,0.26509,2.0214
0.38114,278.775,23.21929,181.881,0.01502,0.00125,0.0098,14.36224,3.09842,0.25807,2.02151
0.38225,318.956,23.01826,180.836,0.01719,0.00124,0.00974,14.40403,3.56567,0.25733,2.0216
0.38336,286.496,22.89064,179.7974,0.01544,0.00123,0.00969,14.44582,3.22141,0.25739,2.02167
0.38446,287.958,22.847,178.768,0.01552,0.00123,0.00963,14.48757,3.25659,0.25838,2.02173
0.38557,290.817,22.72057,177.745,0.01567,0.00122,0.00958,14.52936,3.30792,0.25844,2.02177
0.38668,258.744,22.58373,176.729,0.01394,0.00122,0.00952,14.57115,2.96006,0.25836,2.0218
0.38779,321.657,22.63913,175.722,0.01733,0.00122,0.00947,14.6129,3.70091,0.26048,2.02181
0.3889,295.214,22.52133,174.72,0.01591,0.00121,0.00941,14.65469,3.41612,0.26061,2.02181
0.39001,295.582,22.47624,173.726,0.01593,0.00121,0.00936,14.69648,3.43991,0.26157,2.02178
0.39112,294.286,22.44632,172.74,0.01586,0.00121,0.00931,14.73824,3.44432,0.26271,2.02174
0.39223,299.587,22.39134,171.759,0.01614,0.00121,0.00925,14.78003,3.52627,0.26356,2.02169
0.39333,264.361,22.34478,170.786,0.01424,0.0012,0.0092,14.82182,3.12927,0.2645,2.02161
0.39444,303.719,22.36201,169.819,0.01636,0.0012,0.00915,14.86357,3.61543,0.26619,2.02151
0.39555,246.028,22.36547,168.858,0.01326,0.00121,0.0091,14.90536,2.94518,0.26774,2.02139
0.39666,232.523,22.39718,167.904,0.01253,0.00121,0.00905,14.94715,2.79914,0.26962,2.02125
0.39777,266.32,22.64717,166.955,0.01435,0.00122,0.009,14.98894,3.22395,0.27416,2.02108
0.39888,234.216,22.46856,166.013,0.01262,0.00121,0.00895,15.03069,2.85113,0.27351,2.02089
0.39999,282.891,22.524,165.076,0.01524,0.00121,0.00889,15.07248,3.46283,0.27571,2.02068
0.4011,275.13,22.61277,164.145,0.01482,0.00122,0.00884,15.11427,3.38653,0.27834,2.02044
0.4022,281.389,22.49474,163.221,0.01516,0.00121,0.00879,15.15602,3.48273,0.27842,2.02017
0.40331,262.862,22.58906,162.301,0.01416,0.00122,0.00875,15.19781,3.27139,0.28113,2.01988
0.40442,263.36,22.57394,161.386,0.01419,0.00122,0.0087,15.2396,3.29564,0.28249,2.01956
0.40553,265.471,22.61248,160.478,0.0143,0.00122,0.00865,15.28135,3.34028,0.28452,2.01921
0.40664,233.13,22.55466,159.5737,0.01256,0.00122,0.0086,15.32314,2.94942,0.28535,2.01883
0.40775,259.992,22.62779,158.675,0.01401,0.00122,0.00855,15.36493,3.30723,0.28784,2.01842
0.40885,284.6,22.54955,157.781,0.01533,0.00122,0.0085,15.40669,3.63995,0.2884,2.01798
0.40996,247.006,22.58282,156.892,0.01331,0.00122,0.00845,15.44848,3.1763,0.2904,2.01751
0.41107,248.261,22.69681,156.008,0.01338,0.00122,0.00841,15.49027,3.20973,0.29344,2.017
0.41218,324.446,22.61245,155.129,0.01748,0.00122,0.00836,15.53202,4.21736,0.29393,2.01646
0.41329,280.223,22.6311,154.253,0.0151,0.00122,0.00831,15.57381,3.66215,0.29576,2.01589
0.4144,284.544,22.63846,153.382,0.01533,0.00122,0.00826,15.6156,3.7386,0.29744,2.01528
0.41551,275.421,22.536,152.5163,0.01484,0.00121,0.00822,15.65735,3.63811,0.29768,2.01463
0.41662,225.845,22.59304,151.654,0.01217,0.00122,0.00817,15.69914,2.99919,0.30003,2.01395
0.41773,259.69,22.47931,150.796,0.01399,0.00121,0.00813,15.74093,3.46704,0.30011,2.01322
0.41883,258.54,22.55397,149.941,0.01393,0.00122,0.00808,15.78272,3.47004,0.30271,2.01246
0.41994,251.191,22.51579,149.092,0.01353,0.00121,0.00803,15.82447,3.38926,0.3038,2.01166
0.42105,284.133,22.53989,148.245,0.01531,0.00121,0.00799,15.86626,3.85401,0.30573,2.01082
0.42216,272.953,22.62566,147.403,0.01471,0.00122,0.00794,15.90805,3.7219,0.30852,2.00994
0.42327,288.321,22.69194,146.565,0.01554,0.00122,0.0079,15.9498,3.95211,0.31105,2.00901
0.42438,234.523,22.69394,145.729,0.01264,0.00122,0.00785,15.99159,3.23155,0.31271,2.00804
0.42549,266.189,22.5998,144.897,0.01434,0.00122,0.00781,16.03338,3.68708,0.31304,2.00703
0.42659,268.873,22.81249,144.07,0.01449,0.00123,0.00776,16.07514,3.74368,0.31763,2.00597
0.4277,266.633,22.66217,143.244,0.01437,0.00122,0.00772,16.11693,3.73182,0.31718,2.00486
0.42881,285.357,22.80062,142.422,0.01538,0.00123,0.00767,16.15872,4.01462,0.32078,2.00371
0.42992,226.918,22.76231,141.604,0.01223,0.00123,0.00763,16.20047,3.20898,0.32189,2.0025
0.43103,275.07,22.73087,140.788,0.01482,0.00122,0.00759,16.24226,3.91002,0.32311,2.00125
0.43214,266.873,22.84219,139.975,0.01438,0.00123,0.00754,16.28405,3.81304,0.32637,1.99994
0.43325,223.662,23.42171,139.165,0.01205,0.00126,0.0075,16.3258,3.21206,0.33636,1.99858
0.43435,237.432,24.14687,138.357,0.01279,0.0013,0.00745,16.36759,3.42729,0.34856,1.99716
0.43546,262.522,24.48069,137.552,0.01415,0.00132,0.00741,16.40938,3.80884,0.35518,1.99569
0.43657,272.424,24.95672,136.749,0.01468,0.00134,0.00737,16.45113,3.97264,0.36393,1.99416
0.43768,273.841,25.17048,135.949,0.01476,0.00136,0.00733,16.49292,4.01362,0.36892,1.99256
0.43879,276.53,25.53487,135.15,0.0149,0.00138,0.00728,16.53471,4.0736,0.37616,1.99091
0.4399,261.136,24.71341,134.353,0.01407,0.00133,0.00724,16.5765,3.86629,0.3659,1.98919
0.44101,220.378,24.21482,133.56,0.01187,0.0013,0.0072,16.61825,3.2793,0.36033,1.98741
0.44212,222.269,24.21041,132.767,0.01198,0.0013,0.00715,16.66004,3.3241,0.36207,1.98557
0.44322,269.339,24.03737,131.977,0.01451,0.0013,0.00711,16.70183,4.04827,0.36129,1.98366
0.44433,215.992,23.97121,131.189,0.01164,0.00129,0.00707,16.74359,3.2627,0.3621,1.98169
0.44544,239.311,23.89432,130.402,0.01289,0.00129,0.00703,16.78538,3.63302,0.36274,1.97966
0.44655,256.012,23.87744,129.618,0.01379,0.00129,0.00698,16.82717,3.90593,0.36429,1.97756
0.44766,225.708,23.75008,128.836,0.01216,0.00128,0.00694,16.86892,3.4607,0.36415,1.9754
0.44877,262.325,23.72459,128.055,0.01413,0.00128,0.0069,16.91071,4.04209,0.36557,1.97316
0.44988,265.108,23.58287,127.276,0.01428,0.00127,0.00686,16.9525,4.10518,0.36518,1.97087
0.45099,246.724,23.66328,126.4997,0.01329,0.00128,0.00682,16.99425,3.83935,0.36823,1.9685
0.45209,256.021,23.63792,125.724,0.01379,0.00127,0.00677,17.03604,4.00364,0.36965,1.96607
0.4532,295.272,23.57781,124.951,0.01591,0.00127,0.00673,17.07783,4.64013,0.37052,1.96357
0.45431,254.484,23.56526,124.179,0.01371,0.00127,0.00669,17.11958,4.01873,0.37214,1.961
0.45542,247.941,23.67809,123.408,0.01336,0.00128,0.00665,17.16137,3.93455,0.37574,1.95835
0.45653,202.988,23.46587,122.638,0.01094,0.00126,0.00661,17.20316,3.2369,0.37419,1.95562
0.45764,245.408,23.67576,121.87,0.01322,0.00128,0.00657,17.24492,3.93236,0.37937,1.95282
0.45875,276.472,23.6367,121.103,0.0149,0.00127,0.00653,17.28671,4.45162,0.38059,1.94994
0.45986,245.225,23.47299,120.336,0.01321,0.00126,0.00648,17.3285,3.96761,0.37978,1.94696
0.46096,247.418,23.67638,119.5692,0.01333,0.00128,0.00644,17.37029,4.02242,0.38492,1.94391
0.46207,264.227,23.65247,118.804,0.01424,0.00127,0.0064,17.41204,4.31637,0.38638,1.94076
0.46318,254.69,23.55863,118.038,0.01372,0.00127,0.00636,17.45383,4.18057,0.3867,1.93752
0.46429,223.428,23.69462,117.273,0.01204,0.00128,0.00632,17.49562,3.68501,0.3908,1.93419
0.4654,240.557,23.68484,116.5083,0.01296,0.00128,0.00628,17.53737,3.98648,0.3925,1.93076
0.46651,199.407,23.47691,115.743,0.01074,0.00126,0.00624,17.57916,3.32031,0.39091,1.92723
0.46762,263.8,23.66865,114.977,0.01421,0.00128,0.0062,17.62095,4.41343,0.39598,1.92359
0.46872,245.798,23.7117,114.212,0.01324,0.00128,0.00615,17.6627,4.13176,0.39858,1.91986
0.46983,246.414,23.50599,113.446,0.01328,0.00127,0.00611,17.70449,4.16174,0.397,1.91602
0.47094,232.773,23.7383,112.68,0.01254,0.00128,0.00607,17.74628,3.94993,0.40282,1.91207
0.47205,203.319,23.61677,111.914,0.01096,0.00127,0.00603,17.78803,3.46638,0.40264,1.90802
0.47316,249.446,23.51708,111.147,0.01344,0.00127,0.00599,17.82982,4.2728,0.40283,1.90386
0.47427,230.53,23.76149,110.3799,0.01242,0.00128,0.00595,17.87161,3.96732,0.40892,1.89959
0.47538,264.809,23.75052,109.613,0.01427,0.00128,0.00591,17.91337,4.57857,0.41065,1.89521
0.47649,249.137,23.68717,108.844,0.01342,0.00128,0.00586,17.95516,4.32772,0.41147,1.89071
0.47759,235.003,23.74931,108.075,0.01266,0.00128,0.00582,17.99695,4.10122,0.41447,1.8861
0.4787,218.108,23.79796,107.3054,0.01175,0.00128,0.00578,18.0387,3.82406,0.41725,1.88137
0.47981,240.201,23.71155,106.535,0.01294,0.00128,0.00574,18.08049,4.23095,0.41766,1.87652
0.48092,211.9,23.88426,105.763,0.01142,0.00129,0.0057,18.12228,3.74972,0.42265,1.87155
0.48203,253.458,23.86261,104.99,0.01366,0.00129,0.00566,18.16407,4.50583,0.42422,1.86645
0.48314,238.067,23.71779,104.217,0.01283,0.00128,0.00562,18.20582,4.25169,0.42358,1.86124
0.48425,233.158,23.76163,103.442,0.01256,0.00128,0.00557,18.24761,4.18316,0.42631,1.85589
0.48536,246.015,23.68294,102.666,0.01326,0.00128,0.00553,18.2894,4.43407,0.42685,1.85041
0.48646,237.538,23.6913,101.889,0.0128,0.00128,0.00549,18.33115,4.30086,0.42895,1.8448
0.48757,259.207,23.77945,101.11,0.01397,0.00128,0.00545,18.37294,4.71462,0.43252,1.83905
0.48868,214.479,23.63625,100.329,0.01156,0.00127,0.00541,18.41473,3.91884,0.43187,1.83316
0.48979,246.858,23.78442,99.54768,0.0133,0.00128,0.00536,18.45648,4.53093,0.43655,1.82714
0.4909,211.306,23.66734,98.76373,0.01139,0.00128,0.00532,18.49827,3.89598,0.43637,1.82097
0.49201,231.842,24.38425,97.97796,0.01249,0.00131,0.00528,18.54006,4.29395,0.45162,1.81465
0.49311,230.454,24.98881,97.191,0.01242,0.00135,0.00524,18.58182,4.28749,0.46491,1.80819
0.49422,194.41,25.36197,96.40131,0.01048,0.00137,0.00519,18.62361,3.63319,0.47397,1.80158
0.49533,212.124,25.71224,95.60952,0.01143,0.00139,0.00515,18.6654,3.98205,0.48268,1.79481
0.49644,273.1,26.25411,94.81623,0.01472,0.00141,0.00511,18.70715,5.14967,0.49506,1.78789
0.49755,284.4,26.79693,94.01993,0.01532,0.00144,0.00507,18.74894,5.38673,0.50755,1.7808
0.49866,215.309,25.53101,93.22122,0.0116,0.00138,0.00502,18.79073,4.0963,0.48573,1.77355
0.49977,235.2,25.51101,92.42073,0.01267,0.00137,0.00498,18.83248,4.49464,0.48751,1.76615