File: 2025/starling_2025/figures/experimental_comparison/saxs_scattering/experiment/syndecan3_ed/mff_out.csv
#File Plotted Below: syndecan3_ed.dat,,,,,,,,,,
,,,,,,,,,,
    #Fit from 0.01-0.15 with polymer MFF,,,,,,,,,,
#Initial search parameter for I0 = 0.03741948,,,,,,,,,,
#Initial search parameter for Rg = 30,,,,,,,,,,
#Initial search parameter for nu = 0.499881,,,,,,,,,,
#BestFit for I0 = 0.04498 +- inf,,,,,,,,,,
#BestFit for I(0)/I0 = 1.00000 +- inf,,,,,,,,,,
#BestFit for Rg = 66.16386 +- inf,,,,,,,,,,
#BestFit for nu = 0.60280 +- inf,,,,,,,,,,
#BestFit reduced chisquared = 2.17482,,,,,,,,,,
#-------------,,,,,,,,,,
#-------------,,,,,,,,,,
,,,,,,,,,,
    #q,I(q),Error,fit,I(q)/I0,Error/I0,fit/I0,qRg,((qRg)^2)I(q)/I0,((qRg)^2)*Error/I0,((qRg)^2)*fit/I0
0.00961,0.03957,0.00088,0.03931,0.87988,0.01962,0.87407,0.63609,0.356,0.00794,0.35365
0.01049,0.03889,0.00063,0.03835,0.86471,0.01407,0.85278,0.69391,0.41637,0.00678,0.41063
0.01136,0.03795,0.00047,0.03735,0.84387,0.01055,0.83052,0.75173,0.47688,0.00596,0.46933
0.01224,0.03712,0.00045,0.03632,0.82536,0.00994,0.80744,0.80956,0.54093,0.00651,0.52919
0.01311,0.03648,0.00041,0.03525,0.81118,0.00911,0.7837,0.86739,0.6103,0.00685,0.58963
0.01398,0.03516,0.00042,0.03416,0.78186,0.00924,0.75946,0.92522,0.66929,0.00791,0.65011
0.01486,0.03404,0.00035,0.03305,0.75691,0.00768,0.73486,0.98304,0.73146,0.00742,0.71015
0.01573,0.03196,0.00034,0.03194,0.71063,0.00755,0.71007,1.04086,0.76989,0.00818,0.76928
0.01661,0.03083,0.0003,0.03082,0.68551,0.00657,0.68519,1.09869,0.82749,0.00794,0.82711
0.01748,0.03004,0.0003,0.0297,0.66789,0.00663,0.66035,1.15652,0.89332,0.00887,0.88324
0.01835,0.02848,0.00026,0.02859,0.63328,0.00576,0.63564,1.21435,0.93386,0.0085,0.93734
0.01923,0.02755,0.00026,0.02749,0.61256,0.0058,0.61118,1.27217,0.99136,0.00938,0.98914
0.0201,0.02619,0.00027,0.0264,0.58228,0.00593,0.58707,1.32999,1.02999,0.01049,1.03845
0.02098,0.02502,0.00024,0.02534,0.55625,0.00537,0.5634,1.38782,1.07136,0.01034,1.08514
0.02185,0.02382,0.00023,0.0243,0.52966,0.00519,0.5403,1.44564,1.10692,0.01084,1.12917
0.02272,0.02287,0.00021,0.02329,0.50846,0.00465,0.51787,1.50347,1.14934,0.01052,1.17059
0.0236,0.02189,0.00022,0.02232,0.48679,0.00481,0.49618,1.5613,1.18663,0.01172,1.20952
0.02447,0.02107,0.00023,0.02138,0.46856,0.00501,0.47527,1.61912,1.22836,0.01314,1.24594
0.02535,0.01995,0.00019,0.02047,0.44364,0.00432,0.45513,1.67694,1.24756,0.01216,1.27989
0.02622,0.01927,0.00019,0.0196,0.42852,0.00412,0.43577,1.73477,1.28961,0.0124,1.31142
0.02709,0.01827,0.00019,0.01876,0.40621,0.00415,0.41719,1.79259,1.3053,0.01333,1.34059
0.02797,0.01759,0.00018,0.01796,0.39109,0.00402,0.39939,1.85042,1.3391,0.01377,1.36753
0.02884,0.01666,0.00018,0.0172,0.37038,0.00406,0.38238,1.90824,1.34871,0.0148,1.39238
0.02972,0.01624,0.00017,0.01647,0.36101,0.00372,0.36615,1.96607,1.39546,0.01437,1.41534
0.03059,0.01532,0.00016,0.01577,0.34073,0.00351,0.35072,2.02389,1.39568,0.0144,1.43662
0.03146,0.01486,0.00016,0.01512,0.33043,0.00364,0.33608,2.08171,1.43192,0.01579,1.45639
0.03234,0.01402,0.00016,0.01449,0.31168,0.00353,0.32218,2.13954,1.42678,0.01615,1.47481
0.03321,0.0134,0.00015,0.0139,0.298,0.0034,0.309,2.19736,1.43888,0.01643,1.49197
0.03408,0.01296,0.00016,0.01334,0.28813,0.00353,0.29651,2.25519,1.4654,0.01797,1.50799
0.03496,0.01255,0.00017,0.0128,0.27893,0.00374,0.28467,2.31301,1.49229,0.02,1.523
0.03583,0.01209,0.00015,0.0123,0.26879,0.00343,0.27346,2.37084,1.51082,0.01927,1.5371
0.03671,0.01139,0.00014,0.01182,0.25333,0.00321,0.26285,2.42866,1.49426,0.01895,1.55037
0.03758,0.01134,0.00014,0.01137,0.25219,0.00315,0.25279,2.48648,1.55916,0.0195,1.56293
0.03845,0.01073,0.00017,0.01094,0.23861,0.00372,0.24327,2.5443,1.54462,0.0241,1.57482
0.03933,0.01041,0.00014,0.01054,0.23148,0.00305,0.23425,2.60213,1.56736,0.02066,1.58616
0.0402,0.01,0.00015,0.01015,0.22241,0.00343,0.22571,2.65995,1.57365,0.02425,1.59701
0.04108,0.00964,0.00013,0.00979,0.21442,0.00299,0.21763,2.71777,1.58378,0.02206,1.60745
0.04195,0.00928,0.00014,0.00944,0.20644,0.00309,0.20996,2.7756,1.59042,0.02377,1.61755
0.04282,0.00904,0.00013,0.00912,0.20101,0.00279,0.2027,2.83342,1.61378,0.02241,1.62734
0.0437,0.00872,0.00014,0.00881,0.19391,0.00303,0.19581,2.89124,1.62097,0.02535,1.63685
0.04457,0.00848,0.00013,0.00851,0.18854,0.00284,0.18927,2.94907,1.6397,0.02468,1.64608
0.04545,0.00836,0.00015,0.00823,0.18598,0.00327,0.18305,3.00689,1.6815,0.02953,1.65503
0.04632,0.00784,0.00013,0.00797,0.17443,0.00293,0.17713,3.06471,1.63828,0.0275,1.66368
0.04719,0.00783,0.00013,0.00771,0.174,0.00293,0.17149,3.12253,1.69654,0.02861,1.67208
0.04807,0.00765,0.00013,0.00747,0.17008,0.00295,0.16612,3.18036,1.72033,0.02985,1.68027
0.04894,0.0072,0.00014,0.00724,0.16015,0.00316,0.16101,3.23818,1.67935,0.0331,1.68829
0.04982,0.0073,0.00014,0.00702,0.16221,0.00301,0.15613,3.296,1.76221,0.03265,1.69617
0.05069,0.0067,0.00014,0.00681,0.14889,0.00306,0.15149,3.35382,1.67476,0.03438,1.70394
0.05156,0.00673,0.00013,0.00661,0.14955,0.0028,0.14705,3.41164,1.7407,0.03259,1.71159
0.05244,0.00648,0.00011,0.00642,0.14411,0.00252,0.14282,3.46946,1.7347,0.03038,1.71911
0.05331,0.00642,0.00012,0.00624,0.14281,0.00267,0.13877,3.52728,1.7768,0.03318,1.72648
0.05419,0.00618,0.00012,0.00607,0.13738,0.00267,0.13489,3.5851,1.76578,0.03426,1.73371
0.05506,0.00601,0.00012,0.0059,0.13357,0.00257,0.13118,3.64292,1.77263,0.03413,1.74083
0.05593,0.00589,0.00013,0.00574,0.13099,0.00285,0.12762,3.70074,1.79391,0.039,1.74785
0.05681,0.00551,0.00013,0.00559,0.12253,0.0028,0.12422,3.75856,1.73101,0.03959,1.75482
0.05768,0.0058,0.00013,0.00544,0.12889,0.00284,0.12096,3.81638,1.87722,0.04137,1.76173
0.05855,0.00551,0.00012,0.0053,0.12255,0.00276,0.11783,3.87421,1.83936,0.04137,1.7686
0.05943,0.00525,0.00012,0.00516,0.11684,0.00264,0.11483,3.93203,1.80639,0.04076,1.77543
0.0603,0.00518,0.00012,0.00504,0.11516,0.00261,0.11196,3.98985,1.83322,0.04157,1.7822
0.06118,0.00511,0.00011,0.00491,0.11352,0.00251,0.10919,4.04767,1.85986,0.04114,1.7889
0.06205,0.00508,0.00013,0.00479,0.11297,0.0028,0.10653,4.10549,1.90416,0.0472,1.79555
0.06292,0.00483,0.00011,0.00468,0.10733,0.00241,0.10397,4.1633,1.8603,0.04174,1.80216
0.0638,0.00473,0.00011,0.00457,0.1052,0.00244,0.10151,4.22112,1.87449,0.04351,1.80876
0.06467,0.00475,0.00011,0.00446,0.10565,0.00237,0.09915,4.27894,1.93433,0.04348,1.81536
0.06555,0.0045,0.00011,0.00436,0.10008,0.00243,0.09687,4.33676,1.88233,0.04573,1.82196
0.06642,0.00434,0.00011,0.00426,0.09658,0.00239,0.09468,4.39458,1.86514,0.04624,1.82857
0.06729,0.00433,0.0001,0.00416,0.09624,0.00227,0.09258,4.4524,1.90792,0.0451,1.8352
0.06817,0.00422,0.0001,0.00407,0.09374,0.00231,0.09054,4.51022,1.9068,0.04694,1.84182
0.06904,0.00412,0.00011,0.00398,0.09159,0.00234,0.08858,4.56803,1.91122,0.04888,1.84844
0.06992,0.00394,0.00011,0.0039,0.08759,0.0024,0.08669,4.62585,1.87428,0.05136,1.85507
0.07079,0.00419,0.00011,0.00382,0.09311,0.00249,0.08487,4.68367,2.04251,0.05471,1.86172
0.07166,0.00377,0.00011,0.00374,0.08376,0.00251,0.08311,4.74149,1.88296,0.05635,1.86839
0.07254,0.00371,0.0001,0.00366,0.0824,0.00221,0.08141,4.7993,1.89796,0.05083,1.87508
0.07341,0.00379,0.00011,0.00359,0.08425,0.00246,0.07977,4.85712,1.98754,0.058,1.8818
0.07428,0.00371,0.0001,0.00352,0.08255,0.00214,0.07818,4.91494,1.99424,0.05177,1.88853
0.07516,0.00356,0.00011,0.00345,0.07907,0.00254,0.07664,4.97275,1.95526,0.06282,1.89527
0.07603,0.00361,0.00009,0.00338,0.08037,0.00205,0.07516,5.03056,2.03382,0.05199,1.902
0.07691,0.00357,0.00012,0.00332,0.07937,0.00271,0.07372,5.08838,2.05506,0.07012,1.90871
0.07778,0.00335,0.0001,0.00325,0.07446,0.00219,0.07233,5.1462,1.9719,0.05789,1.91542
0.07865,0.00337,0.0001,0.00319,0.07484,0.00215,0.07097,5.20401,2.02691,0.05816,1.92212
0.07953,0.0032,0.0001,0.00313,0.07124,0.00228,0.06967,5.26183,1.97242,0.06318,1.92881
0.0804,0.00328,0.00011,0.00308,0.07297,0.00237,0.0684,5.31964,2.06495,0.0672,1.93549
0.08127,0.0033,0.00009,0.00302,0.07336,0.00207,0.06716,5.37745,2.12125,0.05987,1.94216
0.08215,0.00321,0.0001,0.00297,0.07132,0.00214,0.06597,5.43527,2.10683,0.06316,1.94881
0.08302,0.00299,0.00009,0.00291,0.06658,0.00205,0.0648,5.49308,2.00889,0.06181,1.95542
0.0839,0.00296,0.00008,0.00286,0.06582,0.00189,0.06368,5.5509,2.02793,0.05819,1.96198
0.08477,0.00295,0.00009,0.00281,0.06559,0.00199,0.06258,5.60871,2.06321,0.06274,1.9685
0.08564,0.00288,0.0001,0.00277,0.06394,0.00226,0.06151,5.66652,2.05316,0.07266,1.97496
0.08652,0.0029,0.0001,0.00272,0.06443,0.00228,0.06047,5.72434,2.11116,0.07484,1.98138
0.08739,0.00282,0.0001,0.00267,0.06267,0.00213,0.05945,5.78215,2.09524,0.07123,1.98775
0.08827,0.00264,0.0001,0.00263,0.05866,0.00215,0.05847,5.83997,2.00073,0.07346,1.99406
0.08914,0.00266,0.0001,0.00259,0.05905,0.00216,0.05751,5.89777,2.05397,0.07528,2.00031
0.09001,0.00252,0.0001,0.00254,0.05601,0.00221,0.05657,5.95559,1.98653,0.07837,2.00649
0.09089,0.00284,0.0001,0.0025,0.06303,0.00232,0.05566,6.0134,2.27941,0.08377,2.0126
0.09176,0.00259,0.00011,0.00246,0.05767,0.00243,0.05476,6.07121,2.12574,0.08957,2.01861
0.09263,0.00251,0.00011,0.00242,0.05571,0.00241,0.05389,6.12902,2.09288,0.09037,2.02455
0.09351,0.00235,0.0001,0.00239,0.05223,0.00214,0.05305,6.18683,1.99911,0.08191,2.03042
0.09438,0.00245,0.0001,0.00235,0.05449,0.00227,0.05222,6.24464,2.12479,0.08834,2.03622
0.09526,0.00243,0.0001,0.00231,0.05409,0.00215,0.05141,6.30245,2.14863,0.08546,2.04197
0.09613,0.00236,0.0001,0.00228,0.05257,0.0022,0.05062,6.36027,2.12663,0.08914,2.04766
0.097,0.00234,0.00009,0.00224,0.0521,0.00195,0.04985,6.41807,2.14617,0.0803,2.0533
0.09788,0.00234,0.0001,0.00221,0.05198,0.00212,0.04909,6.47588,2.18,0.08879,2.05889
0.09875,0.00223,0.00009,0.00218,0.04964,0.00208,0.04836,6.53369,2.11919,0.08897,2.06445
0.09962,0.00234,0.00009,0.00214,0.05196,0.00196,0.04764,6.5915,2.2576,0.08517,2.06996
0.1005,0.00209,0.00009,0.00211,0.04657,0.00204,0.04694,6.64934,2.05887,0.09001,2.07544
0.10137,0.00209,0.00009,0.00208,0.04643,0.00206,0.04626,6.7071,2.08875,0.09248,2.08088
0.10225,0.00214,0.00009,0.00205,0.04751,0.00195,0.04559,6.76492,2.17403,0.0892,2.0863
0.10312,0.00211,0.00009,0.00202,0.0468,0.00205,0.04493,6.82275,2.17876,0.09523,2.09169
0.10399,0.00223,0.00009,0.00199,0.04956,0.00203,0.0443,6.88051,2.34634,0.09597,2.09705
0.10487,0.00199,0.00008,0.00196,0.04429,0.00182,0.04367,6.93834,2.13199,0.08738,2.10239
0.10574,0.00192,0.00009,0.00194,0.04259,0.00202,0.04306,6.99617,2.08483,0.09865,2.10769
0.10661,0.00201,0.00009,0.00191,0.04479,0.00207,0.04246,7.05393,2.22845,0.10321,2.11296
0.10749,0.00205,0.00008,0.00188,0.04568,0.00186,0.04188,7.11175,2.31038,0.09427,2.11821
0.10836,0.00183,0.00008,0.00186,0.04077,0.00182,0.04131,7.16958,2.09553,0.09378,2.12344
0.10923,0.00199,0.00009,0.00183,0.04431,0.00197,0.04075,7.22734,2.31464,0.10294,2.12863
0.11011,0.00184,0.00009,0.00181,0.041,0.00192,0.0402,7.28517,2.17608,0.1018,2.1338
0.11098,0.00184,0.00008,0.00178,0.04097,0.00187,0.03967,7.343,2.20935,0.10078,2.13896
0.11185,0.00182,0.00008,0.00176,0.04037,0.00171,0.03915,7.40076,2.21123,0.09379,2.14409
0.11273,0.00176,0.00008,0.00174,0.03902,0.00187,0.03863,7.45859,2.17095,0.10385,2.1492
0.1136,0.00176,0.00009,0.00171,0.03907,0.00189,0.03813,7.51641,2.20728,0.10702,2.15428
0.11448,0.00178,0.00008,0.00169,0.03968,0.00181,0.03764,7.57417,2.27649,0.10409,2.15934
0.11535,0.00164,0.00008,0.00167,0.03642,0.00182,0.03716,7.632,2.12118,0.10576,2.16438
0.11622,0.00173,0.00008,0.00165,0.03847,0.00179,0.03669,7.68983,2.27471,0.10567,2.1694
0.1171,0.00164,0.00009,0.00163,0.03651,0.00201,0.03622,7.74759,2.19158,0.12093,2.17439
0.11797,0.00158,0.00008,0.00161,0.03523,0.00182,0.03577,7.80542,2.14638,0.11099,2.17936
0.11884,0.00162,0.00009,0.00159,0.03595,0.0019,0.03533,7.86318,2.22297,0.11772,2.18431
0.11972,0.00136,0.00008,0.00157,0.03031,0.00184,0.03489,7.92101,1.90184,0.11546,2.18924
0.12059,0.00151,0.00008,0.00155,0.03351,0.00173,0.03447,7.97883,2.13354,0.10992,2.19415
0.12147,0.00165,0.00008,0.00153,0.03671,0.00179,0.03405,8.03659,2.37071,0.11572,2.19903
0.12234,0.00154,0.00007,0.00151,0.03419,0.00166,0.03364,8.09442,2.24003,0.10878,2.20388
0.12321,0.00154,0.00007,0.00149,0.0343,0.00164,0.03323,8.15218,2.27959,0.10869,2.20871
0.12409,0.0015,0.00008,0.00148,0.03343,0.00177,0.03284,8.21001,2.25324,0.1191,2.21352
0.12496,0.00138,0.00008,0.00146,0.03062,0.00181,0.03245,8.26784,2.09307,0.12401,2.2183
0.12583,0.00143,0.00007,0.00144,0.03179,0.00164,0.03207,8.3256,2.20352,0.11401,2.22306
0.12671,0.00146,0.00007,0.00143,0.03246,0.00154,0.0317,8.38342,2.2811,0.10851,2.2278
0.12758,0.00141,0.00007,0.00141,0.03142,0.00151,0.03133,8.44119,2.23868,0.10762,2.23251
0.12845,0.00151,0.00008,0.00139,0.03368,0.00185,0.03097,8.49901,2.43278,0.1334,2.2372
0.12933,0.00132,0.00007,0.00138,0.02931,0.00161,0.03062,8.55677,2.14631,0.11806,2.24186
0.1302,0.00131,0.00007,0.00136,0.02917,0.00151,0.03027,8.6146,2.16483,0.11175,2.2465
0.13107,0.0014,0.00009,0.00135,0.03115,0.00192,0.02993,8.67236,2.34307,0.14449,2.2511
0.13195,0.00131,0.00008,0.00133,0.02912,0.00181,0.0296,8.73019,2.21977,0.13826,2.25569
0.13282,0.00126,0.00008,0.00132,0.02804,0.00169,0.02927,8.78795,2.1657,0.1302,2.26023
0.1337,0.00125,0.00008,0.0013,0.02788,0.00168,0.02894,8.84578,2.18158,0.13158,2.26475
0.13457,0.00127,0.00008,0.00129,0.02817,0.00169,0.02863,8.90354,2.2335,0.13385,2.26923
0.13544,0.00132,0.00008,0.00127,0.02927,0.00171,0.02831,8.96137,2.3506,0.13745,2.27368
0.13631,0.00126,0.00007,0.00126,0.0281,0.00161,0.02801,9.01913,2.28543,0.13072,2.27808
0.13719,0.00127,0.00007,0.00125,0.02819,0.00158,0.0277,9.07695,2.32265,0.12992,2.28245
0.13806,0.00131,0.00008,0.00123,0.02902,0.00167,0.02741,9.13471,2.42162,0.13917,2.28676
0.13894,0.00117,0.00007,0.00122,0.02594,0.00147,0.02711,9.19254,2.19214,0.1242,2.29105
0.13981,0.00124,0.00007,0.00121,0.02768,0.00163,0.02682,9.2503,2.36861,0.13905,2.29529
0.14068,0.0012,0.00008,0.00119,0.02676,0.00167,0.02654,9.30813,2.31812,0.1451,2.2995
0.14156,0.00117,0.00007,0.00118,0.02598,0.00153,0.02626,9.36589,2.27895,0.13393,2.30367
0.14243,0.00113,0.00007,0.00117,0.02515,0.00167,0.02599,9.42372,2.2339,0.14795,2.30781
0.1433,0.00111,0.00007,0.00116,0.02459,0.00162,0.02572,9.48148,2.211,0.14583,2.3119
0.14418,0.00109,0.00007,0.00114,0.02427,0.00163,0.02545,9.53931,2.20839,0.1486,2.31597
0.14505,0.00109,0.00007,0.00113,0.02421,0.00158,0.02519,9.59707,2.22997,0.14564,2.31999
0.14592,0.00111,0.00006,0.00112,0.02473,0.00142,0.02493,9.65483,2.30488,0.1323,2.32398
0.1468,0.00104,0.00007,0.00111,0.02305,0.00149,0.02468,9.71266,2.17475,0.14081,2.32794
0.14767,0.00105,0.00008,0.0011,0.0234,0.00175,0.02443,9.77042,2.23362,0.16698,2.33186
0.14854,0.00108,0.00008,0.00109,0.02403,0.00175,0.02418,9.82824,2.32158,0.16948,2.33575
0.14942,0.00107,0.00007,0.00108,0.02372,0.0015,0.02394,9.88601,2.31864,0.14702,2.33959
0.15029,0.00107,0.00006,0.00107,0.02378,0.00143,0.0237,9.94377,2.3515,0.14132,2.34341
0.15116,0.00107,0.00007,0.00106,0.0237,0.00165,0.02346,10.00159,2.37104,0.16484,2.34719
0.15204,0.00106,0.00006,0.00104,0.02366,0.00143,0.02323,10.05935,2.3942,0.14422,2.35093
0.15291,0.00105,0.00008,0.00103,0.02342,0.00172,0.023,10.11718,2.39687,0.17646,2.35463
0.15378,0.0011,0.00007,0.00102,0.02436,0.0015,0.02278,10.17494,2.52157,0.1551,2.35831
0.15466,0.00096,0.00006,0.00101,0.02136,0.00141,0.02256,10.2327,2.23621,0.14787,2.36195
0.15553,0.00103,0.00007,0.001,0.02293,0.00159,0.02234,10.29053,2.42866,0.16862,2.36557
0.1564,0.0009,0.00007,0.001,0.02008,0.00154,0.02212,10.34829,2.15081,0.16457,2.36916
0.15728,0.00093,0.00007,0.00099,0.02064,0.00156,0.02191,10.40605,2.23489,0.16878,2.37273
0.15815,0.00091,0.00006,0.00098,0.02024,0.00141,0.0217,10.46388,2.21565,0.15395,2.37628
0.15902,0.00087,0.00007,0.00097,0.01929,0.00162,0.0215,10.52164,2.13517,0.17883,2.37982
0.1599,0.0009,0.00006,0.00096,0.01994,0.00136,0.02129,10.5794,2.23167,0.15238,2.38334
0.16077,0.00099,0.00007,0.00095,0.02195,0.00161,0.02109,10.63716,2.48352,0.1821,2.38684
0.16164,0.00098,0.00007,0.00094,0.0217,0.00149,0.0209,10.69499,2.48225,0.17021,2.39033
0.16252,0.00087,0.00007,0.00093,0.01932,0.00154,0.0207,10.75275,2.23351,0.1783,2.3938
0.16339,0.00089,0.00006,0.00092,0.01986,0.00131,0.02051,10.81051,2.32077,0.15331,2.39725
0.16426,0.00088,0.00006,0.00091,0.01962,0.00142,0.02032,10.86834,2.31798,0.16766,2.40068
0.16514,0.00083,0.00007,0.00091,0.01852,0.00162,0.02014,10.9261,2.21069,0.1932,2.40409
0.16601,0.00093,0.00007,0.0009,0.02068,0.00161,0.01995,10.98386,2.49509,0.19444,2.40747
0.16688,0.00087,0.00006,0.00089,0.01936,0.00136,0.01977,11.04162,2.35989,0.16541,2.41083
0.16776,0.00088,0.00007,0.00088,0.01946,0.00165,0.0196,11.09945,2.39802,0.2034,2.41417
0.16863,0.00084,0.00006,0.00087,0.01872,0.00144,0.01942,11.15721,2.32985,0.17872,2.41747
0.1695,0.00083,0.00006,0.00087,0.01839,0.00136,0.01925,11.21497,2.31285,0.17118,2.42075
0.17038,0.00076,0.00007,0.00086,0.01679,0.00152,0.01908,11.27273,2.13324,0.19345,2.424
0.17125,0.00083,0.00007,0.00085,0.0185,0.00155,0.01891,11.3305,2.37459,0.199,2.42722
0.17212,0.00087,0.00007,0.00084,0.0193,0.00149,0.01874,11.38832,2.50297,0.19281,2.43041
0.173,0.00067,0.00007,0.00084,0.01499,0.00154,0.01858,11.44608,1.96331,0.20206,2.43357
0.17387,0.0008,0.00007,0.00083,0.01788,0.00154,0.01841,11.50384,2.36616,0.20437,2.43669
0.17474,0.00076,0.00006,0.00082,0.01698,0.00133,0.01825,11.56161,2.26989,0.17808,2.43977
0.17561,0.00069,0.00007,0.00081,0.01539,0.00158,0.01809,11.61937,2.07826,0.21396,2.44282
0.17649,0.00078,0.00006,0.00081,0.01737,0.00139,0.01794,11.67719,2.36797,0.18953,2.44584
0.17736,0.00076,0.00008,0.0008,0.01682,0.00182,0.01778,11.73495,2.3164,0.25072,2.44882
0.17824,0.00079,0.00007,0.00079,0.01766,0.00155,0.01763,11.79272,2.45558,0.21567,2.45177
0.17911,0.00074,0.00007,0.00079,0.01646,0.0015,0.01748,11.85048,2.3116,0.21042,2.45468
0.17998,0.00075,0.00007,0.00078,0.01672,0.00148,0.01733,11.90824,2.37162,0.2104,2.45755
0.18085,0.00084,0.00007,0.00077,0.01867,0.00161,0.01718,11.966,2.67332,0.23041,2.4604
0.18173,0.00072,0.00007,0.00077,0.01598,0.0015,0.01704,12.02376,2.31013,0.21728,2.46321
0.1826,0.00071,0.00007,0.00076,0.01587,0.00153,0.01689,12.08152,2.31624,0.22307,2.46599
0.18347,0.00082,0.00007,0.00075,0.01817,0.0015,0.01675,12.13928,2.6781,0.22157,2.46875
0.18435,0.00067,0.00008,0.00075,0.01491,0.00167,0.01661,12.19711,2.21829,0.24847,2.47151
0.18522,0.00066,0.00007,0.00074,0.01461,0.00157,0.01648,12.25487,2.19376,0.23631,2.47428
0.18609,0.0007,0.00007,0.00073,0.0155,0.00146,0.01634,12.31263,2.35029,0.22183,2.47707
0.18697,0.0007,0.00007,0.00073,0.01566,0.00166,0.01621,12.37039,2.39673,0.25455,2.4799
0.18784,0.00083,0.00007,0.00072,0.01841,0.00157,0.01607,12.42815,2.84421,0.24246,2.48277
0.18871,0.0007,0.00007,0.00072,0.01566,0.00151,0.01594,12.48591,2.4412,0.23569,2.48571
0.18959,0.00064,0.00007,0.00071,0.01425,0.0015,0.01582,12.54368,2.24184,0.23568,2.48873
0.19046,0.00068,0.00007,0.00071,0.01516,0.00156,0.01569,12.60144,2.4069,0.24768,2.49184
0.19133,0.0007,0.00007,0.0007,0.01563,0.0015,0.01557,12.6592,2.50425,0.24083,2.49504
0.1922,0.00069,0.00007,0.00069,0.01532,0.00159,0.01545,12.71696,2.47831,0.25792,2.49835
0.19308,0.00063,0.00007,0.00069,0.01409,0.00159,0.01533,12.77472,2.29876,0.2591,2.50176
0.19395,0.00068,0.00007,0.00068,0.01522,0.00155,0.01521,12.83248,2.50623,0.25601,2.5053
0.19482,0.00063,0.00007,0.00068,0.01392,0.00156,0.0151,12.89024,2.31255,0.25879,2.50897
0.1957,0.00067,0.00007,0.00067,0.01482,0.00146,0.01499,12.948,2.48382,0.24469,2.51277
0.19657,0.00066,0.00006,0.00067,0.01475,0.00142,0.01488,13.00576,2.4945,0.24096,2.51672
0.19744,0.00061,0.00007,0.00066,0.01351,0.00147,0.01477,13.06353,2.30518,0.25061,2.52082
0.19831,0.00071,0.00006,0.00066,0.01586,0.00143,0.01467,13.12129,2.73139,0.2456,2.52509
0.19919,0.00058,0.00007,0.00066,0.0129,0.00146,0.01456,13.17905,2.23977,0.25403,2.52953
0.20006,0.00061,0.00007,0.00065,0.01356,0.00156,0.01446,13.23681,2.3765,0.27311,2.53416
0.20093,0.00061,0.00007,0.00065,0.01351,0.00152,0.01437,13.2945,2.38713,0.26868,2.53897
0.20181,0.0007,0.00007,0.00064,0.01551,0.0015,0.01427,13.35226,2.76436,0.26667,2.544
0.20268,0.00065,0.00007,0.00064,0.01448,0.0015,0.01418,13.41003,2.60386,0.27026,2.54926
0.20355,0.0007,0.00007,0.00063,0.0155,0.00155,0.01408,13.46779,2.8116,0.28135,2.55474
0.20442,0.00056,0.00007,0.00063,0.01254,0.00156,0.014,13.52555,2.29366,0.28594,2.56047
0.2053,0.00056,0.00007,0.00063,0.0124,0.0015,0.01391,13.58331,2.28861,0.27711,2.56645
0.20617,0.00058,0.00007,0.00062,0.01291,0.00152,0.01383,13.64107,2.40276,0.28308,2.57272
0.20704,0.00055,0.00008,0.00062,0.01218,0.00174,0.01374,13.69883,2.28513,0.32652,2.57928
0.20792,0.00064,0.00007,0.00061,0.0142,0.0015,0.01367,13.75653,2.68646,0.28311,2.58614
0.20879,0.00061,0.00007,0.00061,0.01359,0.00163,0.01359,13.81429,2.59322,0.31141,2.59335
0.20966,0.00054,0.00008,0.00061,0.01191,0.00167,0.01352,13.87205,2.29238,0.32198,2.60092
0.21053,0.00054,0.00007,0.0006,0.0121,0.00166,0.01344,13.92981,2.34772,0.32303,2.60886
0.21141,0.00061,0.00008,0.0006,0.01355,0.00184,0.01338,13.98757,2.65146,0.35954,2.61719
0.21228,0.00055,0.00008,0.0006,0.01215,0.00175,0.01331,14.04526,2.39632,0.34426,2.62593
0.21315,0.00051,0.00007,0.0006,0.0114,0.00151,0.01325,14.10303,2.26837,0.30061,2.63513
0.21403,0.00049,0.00007,0.00059,0.01088,0.00159,0.01319,14.16079,2.18158,0.31906,2.64478
0.2149,0.00057,0.00008,0.00059,0.01275,0.00168,0.01313,14.21855,2.5781,0.34064,2.65491
0.21577,0.00058,0.00007,0.00059,0.01279,0.00148,0.01308,14.27631,2.60735,0.30231,2.66555
0.21664,0.00063,0.00007,0.00059,0.01408,0.00146,0.01303,14.334,2.89357,0.29929,2.6767
0.21752,0.00051,0.00006,0.00058,0.01123,0.00132,0.01298,14.39176,2.32677,0.27442,2.68842
0.21839,0.00053,0.00006,0.00058,0.0118,0.00144,0.01294,14.44953,2.46277,0.29988,2.70071
0.21926,0.00061,0.00007,0.00058,0.01349,0.00147,0.01289,14.50722,2.83831,0.30922,2.71357
0.22013,0.00055,0.00007,0.00058,0.01231,0.00152,0.01286,14.56498,2.61108,0.32168,2.72708
0.22101,0.00049,0.00007,0.00058,0.01079,0.00162,0.01282,14.62274,2.30806,0.34716,2.74122
0.22188,0.00055,0.00007,0.00058,0.01216,0.00148,0.01279,14.68044,2.61983,0.31992,2.75601
0.22275,0.00052,0.00007,0.00057,0.01167,0.00153,0.01276,14.7382,2.5341,0.33288,2.7715
0.22363,0.00055,0.00007,0.00057,0.01228,0.00156,0.01273,14.79596,2.68829,0.34081,2.78769
0.2245,0.00061,0.00007,0.00057,0.01348,0.00149,0.01271,14.85365,2.97389,0.32784,2.80459
0.22537,0.00053,0.00007,0.00057,0.01178,0.00154,0.01269,14.91142,2.61973,0.34165,2.82226
0.22624,0.00053,0.00007,0.00057,0.01168,0.00154,0.01268,14.96918,2.61761,0.34525,2.8407
0.22712,0.00054,0.00007,0.00057,0.01197,0.00159,0.01267,15.02687,2.703,0.35945,2.85991
0.22799,0.00053,0.00007,0.00057,0.01183,0.00157,0.01266,15.08463,2.69249,0.35651,2.87996
0.22886,0.00053,0.00007,0.00057,0.01189,0.0016,0.01265,15.14239,2.72546,0.3668,2.90085
0.22973,0.00048,0.00006,0.00057,0.01074,0.00134,0.01265,15.20009,2.48234,0.30994,2.92259
0.23061,0.00054,0.00006,0.00057,0.01198,0.00137,0.01265,15.25785,2.78934,0.3181,2.94524
0.23148,0.00044,0.00007,0.00057,0.0098,0.00155,0.01266,15.31554,2.29839,0.36349,2.96878
0.23235,0.00059,0.00006,0.00057,0.01305,0.00142,0.01267,15.37331,3.08537,0.33635,2.9933
0.23322,0.00039,0.00006,0.00057,0.00867,0.00143,0.01268,15.431,2.06354,0.34023,3.01876
0.2341,0.00046,0.00007,0.00057,0.01024,0.0015,0.01269,15.48876,2.45688,0.36097,3.04525
0.23497,0.00047,0.00007,0.00057,0.01044,0.00156,0.01271,15.54646,2.52385,0.3759,3.07273
0.23584,0.00042,0.00007,0.00057,0.00944,0.00153,0.01274,15.60422,2.29829,0.37142,3.10131
0.23671,0.00044,0.00006,0.00057,0.00976,0.00141,0.01276,15.66191,2.39352,0.34634,3.13094
0.23759,0.00041,0.00007,0.00058,0.00916,0.00154,0.01279,15.71967,2.26436,0.38089,3.16173
0.23846,0.00052,0.00007,0.00058,0.0116,0.00151,0.01283,15.77737,2.88877,0.37662,3.19364
0.23933,0.00053,0.00006,0.00058,0.01171,0.00133,0.01287,15.83513,2.93683,0.33296,3.22678
0.2402,0.00041,0.00007,0.00058,0.00917,0.00149,0.01291,15.89282,2.3155,0.37759,3.2611
0.24108,0.00037,0.00006,0.00058,0.00814,0.00137,0.01296,15.95059,2.06973,0.34935,3.29672
0.24195,0.00053,0.00006,0.00059,0.01186,0.00134,0.01301,16.00828,3.03862,0.34441,3.3336
0.24282,0.00049,0.00007,0.00059,0.011,0.00157,0.01306,16.06604,2.83844,0.40436,3.37186
0.24369,0.00043,0.00006,0.00059,0.00966,0.00137,0.01312,16.12374,2.51258,0.35588,3.41143
0.24457,0.00047,0.00006,0.00059,0.01041,0.00138,0.01319,16.18143,2.72506,0.36042,3.45242
0.24544,0.00047,0.00007,0.0006,0.01056,0.00151,0.01325,16.23919,2.784,0.39898,3.4949
0.24631,0.00048,0.00006,0.0006,0.01068,0.00138,0.01332,16.29689,2.83752,0.36535,3.53881
0.24718,0.00047,0.00006,0.0006,0.01037,0.00141,0.0134,16.35465,2.77318,0.37838,3.58431
0.24806,0.00045,0.00007,0.00061,0.01011,0.00147,0.01348,16.41234,2.72288,0.39729,3.63131
0.24893,0.00039,0.00007,0.00061,0.00866,0.0016,0.01357,16.47004,2.35021,0.43383,3.67993
0.2498,0.00044,0.00006,0.00061,0.00983,0.00138,0.01366,16.5278,2.68524,0.37676,3.73025
0.25067,0.00042,0.00007,0.00062,0.00939,0.00162,0.01375,16.58549,2.58315,0.4465,3.78221
0.25155,0.00042,0.00007,0.00062,0.00934,0.00149,0.01385,16.64319,2.58787,0.41322,3.83591
0.25242,0.00041,0.00006,0.00063,0.00905,0.00136,0.01395,16.70088,2.52484,0.37862,3.89138
0.25329,0.00049,0.00006,0.00063,0.01099,0.00141,0.01406,16.75864,3.0859,0.39519,3.94876
0.25416,0.00044,0.00006,0.00064,0.00975,0.00137,0.01417,16.81634,2.75639,0.38864,4.00795
0.25503,0.00043,0.00007,0.00064,0.00946,0.00145,0.01429,16.87403,2.6934,0.41424,4.06906
0.25591,0.00049,0.00007,0.00065,0.01078,0.00157,0.01441,16.9318,3.09174,0.45128,4.13221
0.25678,0.0004,0.00006,0.00065,0.00895,0.00142,0.01454,16.98949,2.58268,0.41007,4.19732
0.25765,0.00039,0.00006,0.00066,0.00865,0.00143,0.01467,17.04718,2.5145,0.41577,4.26451
0.25852,0.00049,0.00007,0.00067,0.01083,0.00147,0.01481,17.10488,3.1673,0.42984,4.3338
0.25939,0.00046,0.00007,0.00067,0.01032,0.00153,0.01496,17.16257,3.03974,0.45067,4.40526
0.26027,0.00043,0.00006,0.00068,0.00962,0.00127,0.0151,17.22034,2.853,0.37774,4.47902
0.26114,0.00038,0.00007,0.00069,0.00844,0.00146,0.01526,17.27803,2.5188,0.43719,4.55494
0.26201,0.00047,0.00006,0.00069,0.01047,0.00132,0.01542,17.33573,3.14724,0.39761,4.63316
0.26288,0.00033,0.00008,0.0007,0.00723,0.00169,0.01558,17.39342,2.1873,0.51149,4.71373
0.26376,0.00044,0.00006,0.00071,0.00969,0.00134,0.01575,17.45112,2.94988,0.4078,4.79669
0.26463,0.00043,0.00006,0.00072,0.00949,0.00133,0.01593,17.50881,2.91046,0.40714,4.8821
0.2655,0.00041,0.00006,0.00072,0.00917,0.00141,0.01611,17.56651,2.82844,0.43597,4.96999
0.26637,0.00039,0.00006,0.00073,0.00866,0.00138,0.01629,17.62427,2.69047,0.42722,5.06053
0.26725,0.00035,0.00006,0.00074,0.00789,0.00128,0.01648,17.68196,2.46583,0.40041,5.15356
0.26812,0.00033,0.00007,0.00075,0.00745,0.00145,0.01668,17.73966,2.34395,0.45788,5.24924
0.26899,0.00042,0.00006,0.00076,0.00932,0.00139,0.01688,17.79735,2.95353,0.43965,5.34763
0.26986,0.00039,0.00006,0.00077,0.00873,0.00142,0.01709,17.85505,2.78474,0.45419,5.44878
0.27073,0.00042,0.00006,0.00078,0.00923,0.00136,0.01731,17.91274,2.96202,0.43756,5.55275
0.2716,0.00041,0.00006,0.00079,0.00914,0.00134,0.01753,17.97044,2.95072,0.43307,5.6596
0.27248,0.00045,0.00006,0.0008,0.00994,0.00137,0.01775,18.02813,3.23036,0.44487,5.76938
0.27335,0.00046,0.00006,0.00081,0.01022,0.00136,0.01798,18.08583,3.34448,0.44439,5.88215
0.27422,0.00038,0.00007,0.00082,0.00834,0.00149,0.01822,18.14352,2.7456,0.49158,5.99796
0.27509,0.00048,0.00006,0.00083,0.01071,0.00136,0.01846,18.20122,3.54651,0.45103,6.11688
0.27597,0.00047,0.00006,0.00084,0.01045,0.00139,0.01871,18.25891,3.48484,0.46233,6.23895
0.27684,0.00035,0.00006,0.00085,0.00776,0.00137,0.01897,18.3166,2.60507,0.45905,6.36425
0.27771,0.00048,0.00007,0.00086,0.01058,0.00146,0.01923,18.3743,3.57068,0.49169,6.49282
0.27858,0.00032,0.00006,0.00088,0.00706,0.00139,0.0195,18.43199,2.39901,0.47357,6.62473
0.27945,0.0004,0.00006,0.00089,0.00881,0.00136,0.01977,18.48969,3.0123,0.46544,6.76004
0.28032,0.00038,0.00006,0.0009,0.00847,0.00127,0.02005,18.54732,2.91526,0.43798,6.89864
0.2812,0.00038,0.00007,0.00091,0.0084,0.00146,0.02034,18.60501,2.90774,0.50692,7.04091
0.28207,0.00043,0.00006,0.00093,0.00956,0.00135,0.02063,18.66271,3.32952,0.47098,7.18676
0.28294,0.00041,0.00007,0.00094,0.00918,0.00154,0.02093,18.7204,3.21549,0.54027,7.33624
0.28381,0.00042,0.00006,0.00096,0.00925,0.00126,0.02124,18.7781,3.2607,0.44466,7.48942
0.28468,0.0004,0.00007,0.00097,0.00883,0.00156,0.02155,18.83579,3.13373,0.55316,7.64635
0.28556,0.00043,0.00007,0.00098,0.00949,0.00147,0.02187,18.89349,3.38933,0.52391,7.80709
0.28643,0.00038,0.00006,0.001,0.00841,0.00126,0.0222,18.95112,3.02034,0.4528,7.97153
0.2873,0.00039,0.00006,0.00101,0.00866,0.00142,0.02253,19.00881,3.12792,0.51174,8.14009
0.28817,0.00034,0.00007,0.00103,0.0076,0.00149,0.02287,19.06651,2.76119,0.5424,8.31265
0.28904,0.00035,0.00006,0.00104,0.0078,0.00133,0.02321,19.1242,2.85263,0.48723,8.48928
0.28991,0.0004,0.00007,0.00106,0.00886,0.00151,0.02356,19.1819,3.2595,0.55572,8.67005
0.29079,0.00038,0.00007,0.00108,0.00844,0.00146,0.02392,19.23952,3.12457,0.53879,8.85479
0.29166,0.00036,0.00007,0.00109,0.00805,0.00153,0.02429,19.29722,2.99926,0.57072,9.04401
0.29253,0.00037,0.00006,0.00111,0.00816,0.0014,0.02466,19.35491,3.05698,0.52489,9.23755
0.2934,0.00035,0.00007,0.00113,0.00786,0.0016,0.02504,19.41254,2.96063,0.60216,9.43526
0.29427,0.00032,0.00006,0.00114,0.00716,0.00142,0.02542,19.47024,2.7159,0.53974,9.63765
0.29514,0.00035,0.00007,0.00116,0.00773,0.00157,0.02582,19.52793,2.947,0.59847,9.84457
0.29602,0.00034,0.00007,0.00118,0.00757,0.0015,0.02621,19.58556,2.90192,0.5758,10.05585
0.29689,0.00045,0.00006,0.0012,0.0099,0.00139,0.02662,19.64326,3.82058,0.53755,10.27203
0.29776,0.00035,0.00006,0.00122,0.00787,0.00144,0.02703,19.70095,3.05621,0.55939,10.49295
0.29863,0.00035,0.00007,0.00123,0.00786,0.00163,0.02745,19.75858,3.06758,0.63807,10.71841
0.2995,0.00047,0.00006,0.00125,0.01046,0.00143,0.02788,19.81627,4.10667,0.56113,10.949
0.30038,0.00037,0.00007,0.00127,0.00813,0.00148,0.02832,19.87397,3.21025,0.58291,11.18455
0.30125,0.00044,0.00007,0.00129,0.00988,0.00146,0.02876,19.9316,3.92549,0.58172,11.42483
0.30212,0.00034,0.00007,0.00131,0.00761,0.00165,0.02921,19.98929,3.04102,0.66025,11.67048
0.30299,0.00037,0.00007,0.00133,0.00819,0.00147,0.02966,20.04692,3.29212,0.59069,11.92101
0.30386,0.0004,0.00007,0.00135,0.00894,0.00148,0.03013,20.10462,3.61483,0.59634,12.17706
0.30473,0.00034,0.00007,0.00138,0.00747,0.00148,0.0306,20.16225,3.0378,0.60205,12.43812
0.3056,0.00041,0.00006,0.0014,0.00913,0.00141,0.03107,20.21994,3.73456,0.57623,12.70488
0.30647,0.00024,0.00007,0.00142,0.00536,0.00154,0.03156,20.27757,2.20426,0.63371,12.97678
0.30735,0.00042,0.00007,0.00144,0.00926,0.00153,0.03205,20.33526,3.82963,0.6309,13.25453
0.30822,0.0003,0.00006,0.00146,0.00664,0.00135,0.03255,20.39289,2.76235,0.56176,13.53757
0.30909,0.00034,0.00007,0.00149,0.00747,0.0015,0.03306,20.45059,3.12508,0.62779,13.82663
0.30996,0.00036,0.00007,0.00151,0.00802,0.00163,0.03357,20.50822,3.37134,0.68723,14.12113
0.31083,0.00033,0.00008,0.00153,0.0073,0.00174,0.0341,20.56591,3.08623,0.73511,14.42182
0.3117,0.00032,0.00006,0.00156,0.00705,0.00142,0.03463,20.62354,2.9987,0.60583,14.72808
0.31257,0.00023,0.00007,0.00158,0.00505,0.00151,0.03516,20.68117,2.15808,0.6467,15.04035
0.31345,0.00034,0.00006,0.00161,0.00764,0.00144,0.03571,20.73886,3.28652,0.62117,15.35906
0.31432,0.0003,0.00007,0.00163,0.00672,0.0016,0.03626,20.79649,2.90802,0.69097,15.68358
0.31519,0.00042,0.00007,0.00166,0.00927,0.00146,0.03682,20.85412,4.03051,0.63587,16.01434
0.31606,0.00032,0.00007,0.00168,0.00707,0.00153,0.03739,20.91182,3.09105,0.66853,16.35182
0.31693,0.00035,0.00006,0.00171,0.00767,0.0014,0.03797,20.96944,3.37368,0.61537,16.69532
0.3178,0.00041,0.00007,0.00173,0.00919,0.00162,0.03855,21.02707,4.06282,0.71691,17.04532
0.31867,0.00038,0.00007,0.00176,0.00846,0.00148,0.03914,21.08477,3.76068,0.65661,17.40232
0.31955,0.00033,0.00007,0.00179,0.00731,0.00166,0.03974,21.1424,3.26922,0.74216,17.76557
0.32042,0.00027,0.00006,0.00181,0.00599,0.00144,0.04035,21.20003,2.69076,0.64783,18.13558
0.32129,0.00031,0.00006,0.00184,0.00695,0.00139,0.04097,21.25765,3.14021,0.62965,18.51242
0.32216,0.00028,0.00007,0.00187,0.00614,0.00157,0.04159,21.31535,2.78933,0.71542,18.89663
0.32303,0.00033,0.00006,0.0019,0.00739,0.00138,0.04222,21.37298,3.37657,0.63234,19.28742
0.3239,0.00022,0.00007,0.00193,0.00496,0.00166,0.04286,21.43061,2.27857,0.76392,19.68531
0.32477,0.00032,0.00007,0.00196,0.00708,0.0016,0.04351,21.48824,3.26803,0.73893,20.09039
0.32564,0.00036,0.00007,0.00199,0.00796,0.00151,0.04417,21.54586,3.69361,0.70151,20.50276
0.32652,0.00031,0.00008,0.00202,0.00692,0.00169,0.04483,21.60356,3.22973,0.78658,20.92298
0.32739,0.00024,0.00007,0.00205,0.00525,0.00154,0.0455,21.66119,2.46318,0.72466,21.35019
0.32826,0.0003,0.00008,0.00208,0.00673,0.00181,0.04618,21.71882,3.17425,0.85511,21.78495
0.32913,0.00026,0.00008,0.00211,0.00571,0.00173,0.04687,21.77645,2.70612,0.82261,22.22736
0.33,0.0004,0.00008,0.00214,0.00889,0.00179,0.04757,21.83407,4.23578,0.85278,22.67752
0.33087,0.00031,0.00007,0.00217,0.00681,0.00147,0.04827,21.8917,3.26601,0.70362,23.13551
0.33174,0.00034,0.00009,0.0022,0.00764,0.00192,0.04899,21.94933,3.68282,0.92721,23.60143
0.33261,0.00022,0.00008,0.00224,0.00483,0.00178,0.04971,22.00696,2.33797,0.86299,24.07538
0.33348,0.00027,0.00008,0.00227,0.00603,0.00177,0.05044,22.06459,2.93606,0.86363,24.55746
0.33436,0.00037,0.00008,0.0023,0.00829,0.00172,0.05118,22.12222,4.05682,0.84395,25.04775
0.33523,0.00035,0.00008,0.00234,0.00777,0.00181,0.05193,22.17985,3.82308,0.88897,25.54637
0.3361,0.00027,0.00007,0.00237,0.00607,0.00163,0.05269,22.23748,2.99929,0.80519,26.0534
0.33697,0.00038,0.00007,0.0024,0.00837,0.0016,0.05345,22.2951,4.16165,0.79515,26.56894
0.33784,0.00028,0.00008,0.00244,0.00622,0.00178,0.05422,22.35273,3.10567,0.8883,27.0931
0.33871,0.00029,0.00007,0.00247,0.00648,0.00159,0.05501,22.41036,3.25441,0.79977,27.62598
0.33958,0.00026,0.00008,0.00251,0.00586,0.0017,0.0558,22.46799,2.95679,0.8591,28.16768
0.34045,0.00025,0.00008,0.00255,0.00563,0.00167,0.0566,22.52562,2.85697,0.84692,28.71829
0.34132,0.00029,0.00008,0.00258,0.00639,0.0017,0.05741,22.58325,3.25767,0.86859,29.27793
0.34219,0.00028,0.00007,0.00262,0.00615,0.00155,0.05823,22.64088,3.15498,0.79357,29.8467
0.34307,0.00029,0.00007,0.00266,0.00653,0.00166,0.05905,22.69851,3.36463,0.85445,30.4247
0.34394,0.00033,0.00008,0.00269,0.00743,0.00178,0.05989,22.75613,3.8451,0.92122,31.01203
0.34481,0.00029,0.00007,0.00273,0.00652,0.00161,0.06073,22.8137,3.39118,0.83817,31.60811
0.34568,0.00024,0.00008,0.00277,0.00524,0.00185,0.06158,22.87133,2.74292,0.96661,32.21442
0.34655,0.00034,0.00008,0.00281,0.00756,0.00167,0.06245,22.92895,3.97515,0.87922,32.83039
0.34742,0.00028,0.00007,0.00285,0.00618,0.00162,0.06332,22.98658,3.26701,0.85363,33.45612
0.34829,0.00036,0.00007,0.00289,0.00804,0.00156,0.0642,23.04421,4.2714,0.82906,34.09172
0.34916,0.00028,0.00008,0.00293,0.00627,0.00175,0.06509,23.10177,3.34627,0.93493,34.73656
0.35003,0.00031,0.00007,0.00297,0.00689,0.00158,0.06599,23.1594,3.69752,0.84955,35.39222
0.3509,0.00024,0.00007,0.00301,0.00542,0.00156,0.06689,23.21703,2.91988,0.84194,36.05809
0.35177,0.00025,0.00008,0.00305,0.00562,0.00177,0.06781,23.27459,3.04546,0.9591,36.73348
0.35264,0.00034,0.00007,0.00309,0.00748,0.00164,0.06874,23.33222,4.07467,0.8937,37.42008
0.35351,0.00024,0.00007,0.00313,0.00524,0.00159,0.06967,23.38985,2.86429,0.86991,38.11721
0.35438,0.00027,0.00007,0.00318,0.0059,0.00165,0.07062,23.44741,3.24139,0.90916,38.82418
0.35525,0.00026,0.00008,0.00322,0.00579,0.00168,0.07157,23.50504,3.20099,0.92665,39.54272
0.35613,0.00038,0.00007,0.00326,0.00839,0.00159,0.07254,23.56267,4.65542,0.88517,40.27215
0.357,0.00029,0.00008,0.00331,0.00656,0.00168,0.07351,23.62023,3.65762,0.93495,41.01172
0.35787,0.00031,0.00007,0.00335,0.00689,0.00155,0.07449,23.67786,3.86307,0.86782,41.76326
0.35874,0.0003,0.00007,0.00339,0.00659,0.00151,0.07548,23.73549,3.71129,0.85057,42.52603
0.35961,0.00028,0.00008,0.00344,0.00622,0.00172,0.07649,23.79305,3.52034,0.9742,43.29925
0.36048,0.00023,0.00008,0.00349,0.00505,0.00167,0.0775,23.85068,2.87076,0.95042,44.08484
0.36135,0.00024,0.00007,0.00353,0.00527,0.00159,0.07852,23.90825,3.01257,0.90626,44.88109
0.36222,0.00028,0.00008,0.00358,0.00632,0.00176,0.07955,23.96587,3.63034,1.0121,45.68997
0.36309,0.00023,0.00007,0.00362,0.00515,0.00157,0.08059,24.02344,2.97477,0.90456,46.50973
0.36396,0.0003,0.00007,0.00367,0.00665,0.00158,0.08164,24.08107,3.85815,0.91811,47.34239
0.36483,0.00026,0.00008,0.00372,0.00574,0.00171,0.0827,24.13863,3.34425,0.99671,48.18616
0.3657,0.00033,0.00007,0.00377,0.00724,0.00159,0.08377,24.19619,4.23908,0.93118,49.0421
0.36657,0.00023,0.00007,0.00382,0.00506,0.00154,0.08485,24.25382,2.97536,0.90862,49.91135
0.36744,0.00028,0.00006,0.00387,0.00625,0.00144,0.08594,24.31138,3.69313,0.85285,50.79204
0.36831,0.00021,0.00008,0.00391,0.00461,0.00168,0.08704,24.36901,2.73646,0.99642,51.68631
0.36918,0.00024,0.00007,0.00396,0.00541,0.00162,0.08814,24.42657,3.22585,0.96424,52.59225
0.37005,0.00019,0.00007,0.00401,0.0043,0.00158,0.08926,24.48414,2.57675,0.94881,53.511
0.37092,0.00028,0.00007,0.00407,0.00629,0.00164,0.09039,24.54176,3.78832,0.98613,54.44376
0.37179,0.00023,0.00006,0.00412,0.00517,0.00144,0.09153,24.59933,3.12794,0.87392,55.38853
0.37266,0.00033,0.00007,0.00417,0.00734,0.00154,0.09268,24.65689,4.4616,0.9333,56.34649
0.37354,0.00021,0.00008,0.00422,0.00471,0.00174,0.09384,24.71452,2.87899,1.06092,57.31891
0.3744,0.00028,0.00007,0.00427,0.0063,0.00164,0.09501,24.77208,3.86689,1.00341,58.30368
0.37528,0.00017,0.00008,0.00433,0.00374,0.00171,0.09619,24.82964,2.30408,1.05443,59.30204
0.37615,0.00019,0.00007,0.00438,0.0043,0.00166,0.09738,24.88721,2.66178,1.03106,60.31413
0.37702,0.00031,0.00007,0.00443,0.00697,0.00159,0.09858,24.94483,4.33608,0.98949,61.34127
0.37789,0.0003,0.00008,0.00449,0.00658,0.00168,0.09979,25.0024,4.11319,1.04924,62.38123
0.37876,0.00027,0.00006,0.00454,0.00611,0.00141,0.10101,25.05996,3.8372,0.8866,63.43532
0.37963,0.00022,0.00007,0.0046,0.00493,0.00149,0.10224,25.11752,3.11093,0.94255,64.50369
0.3805,0.00026,0.00007,0.00465,0.00586,0.00152,0.10348,25.17508,3.71455,0.961,65.58646
0.38137,0.00027,0.00007,0.00471,0.00596,0.00163,0.10474,25.23265,3.79757,1.0361,66.68377
0.38224,0.00024,0.00007,0.00477,0.00538,0.00162,0.106,25.29028,3.44086,1.03298,67.79706
0.38311,0.00017,0.00008,0.00482,0.00375,0.00172,0.10727,25.34784,2.40881,1.10275,68.92389
0.38398,0.00026,0.00008,0.00488,0.00573,0.00167,0.10856,25.4054,3.6958,1.07928,70.0657
0.38485,0.00026,0.00007,0.00494,0.00579,0.00159,0.10985,25.46296,3.75537,1.03274,71.22261
0.38572,0.00033,0.00007,0.005,0.00738,0.00156,0.11115,25.52053,4.80677,1.01282,72.39478
0.38659,0.0003,0.00008,0.00506,0.00672,0.00181,0.11247,25.57809,4.39713,1.18665,73.58233
0.38746,0.00031,0.00007,0.00512,0.007,0.00152,0.1138,25.63565,4.59785,1.00001,74.78542
0.38833,0.00039,0.00007,0.00518,0.00873,0.00156,0.11513,25.69321,5.76169,1.02789,76.0042
0.3892,0.00026,0.00007,0.00524,0.00577,0.00166,0.11648,25.75078,3.82372,1.10326,77.23881
0.39007,0.00018,0.00008,0.0053,0.00408,0.00185,0.11784,25.80834,2.71599,1.23198,78.48939
0.39094,0.00027,0.00007,0.00536,0.00602,0.00157,0.11921,25.8659,4.02614,1.04903,79.75609
0.39181,0.00033,0.00007,0.00542,0.00731,0.00147,0.12059,25.92346,4.91363,0.98831,81.03907
0.39268,0.00023,0.00007,0.00549,0.00515,0.00164,0.12198,25.98103,3.47392,1.10507,82.33847
0.39355,0.00027,0.00006,0.00555,0.00604,0.00141,0.12338,26.03852,4.09807,0.95769,83.65292
0.39442,0.00027,0.00007,0.00561,0.00603,0.00163,0.12479,26.09609,4.10984,1.10766,84.9856
0.39529,0.0002,0.00007,0.00568,0.00443,0.00159,0.12622,26.15365,3.03323,1.08641,86.33515
0.39616,0.00037,0.00007,0.00574,0.00823,0.00166,0.12765,26.21121,5.6526,1.14383,87.70173
0.39703,0.00028,0.00007,0.00581,0.00614,0.00146,0.1291,26.26877,4.23968,1.00599,89.0855
0.3979,0.00022,0.00007,0.00587,0.00497,0.00147,0.13056,26.32634,3.44383,1.01786,90.4866
0.39876,0.00018,0.00007,0.00594,0.00393,0.00152,0.13203,26.38383,2.73312,1.05991,91.90355
0.39964,0.00031,0.00008,0.006,0.00681,0.0017,0.13351,26.44139,4.76114,1.18997,93.33978
0.4005,0.00025,0.00007,0.00607,0.00563,0.00153,0.135,26.49896,3.95206,1.07777,94.79381
0.40137,0.00024,0.00006,0.00614,0.00543,0.00143,0.1365,26.55645,3.83017,1.01196,96.2641
0.40224,0.00027,0.00007,0.00621,0.00595,0.00161,0.13801,26.61402,4.21547,1.13744,97.7542
0.40311,0.00023,0.00007,0.00628,0.00511,0.00155,0.13954,26.67158,3.63333,1.10193,99.26258
0.40398,0.00033,0.00007,0.00634,0.00738,0.00146,0.14107,26.72914,5.26953,1.04599,100.789
0.40485,0.00034,0.00007,0.00641,0.00759,0.00152,0.14262,26.78664,5.44839,1.09123,102.333
0.40572,0.00022,0.00008,0.00648,0.00489,0.00173,0.14418,26.8442,3.52246,1.24487,103.897
0.40659,0.00026,0.00008,0.00656,0.00589,0.00179,0.14575,26.9017,4.25923,1.29726,105.479
0.40746,0.00027,0.00008,0.00663,0.0059,0.00172,0.14733,26.95926,4.28859,1.25141,107.081
0.40833,0.00028,0.00007,0.0067,0.00633,0.00167,0.14893,27.01682,4.61763,1.21531,108.702
0.4092,0.00021,0.00008,0.00677,0.00458,0.00169,0.15053,27.07432,3.35989,1.23548,110.341
0.41007,0.00026,0.00008,0.00684,0.00585,0.00173,0.15215,27.13188,4.30697,1.27703,112.002
0.41094,0.00015,0.00007,0.00692,0.00341,0.0016,0.15377,27.18938,2.52379,1.18499,113.68
0.41181,0.00027,0.00007,0.00699,0.00603,0.00153,0.15542,27.24694,4.47714,1.13531,115.38
0.41268,0.00025,0.00007,0.00706,0.00557,0.00166,0.15707,27.30444,4.15002,1.24065,117.098
0.41355,0.00025,0.00007,0.00714,0.00552,0.0016,0.15873,27.362,4.13045,1.19671,118.839
0.41442,0.00034,0.00007,0.00721,0.00754,0.00158,0.16041,27.41949,5.66582,1.18819,120.598
0.41529,0.00034,0.00007,0.00729,0.00757,0.0016,0.16209,27.47699,5.71148,1.21135,122.377
0.41616,0.00032,0.00007,0.00737,0.00709,0.00152,0.16379,27.53455,5.37908,1.14964,124.18
0.41703,0.0002,0.00007,0.00744,0.00441,0.00162,0.1655,27.59205,3.35819,1.23428,126.0007
0.4179,0.00026,0.00007,0.00752,0.00582,0.00158,0.16722,27.64955,4.45309,1.20876,127.843
0.41876,0.00015,0.00008,0.0076,0.00342,0.00187,0.16896,27.70711,2.62396,1.43482,129.709
0.41963,0.00021,0.00008,0.00768,0.00467,0.0017,0.17071,27.76461,3.59695,1.3107,131.594
0.4205,0.00029,0.00006,0.00776,0.00646,0.00144,0.17247,27.8221,4.9993,1.11745,133.5
0.42137,0.00018,0.00006,0.00784,0.00396,0.00137,0.17424,27.87966,3.08002,1.065,135.431
0.42224,0.0003,0.00007,0.00792,0.00658,0.00163,0.17602,27.93716,5.13707,1.27345,137.381
0.42311,0.00025,0.00007,0.008,0.00549,0.00159,0.17782,27.99466,4.30326,1.24908,139.354
0.42398,0.00012,0.00008,0.00808,0.00272,0.00169,0.17962,28.05215,2.13881,1.32763,141.349
0.42485,0.00016,0.00008,0.00816,0.00346,0.00179,0.18144,28.10972,2.73271,1.41297,143.3689
0.42572,0.00031,0.00007,0.00824,0.00691,0.00157,0.18328,28.16721,5.47874,1.24341,145.409
0.42659,0.00029,0.00007,0.00833,0.00648,0.00152,0.18512,28.22471,5.16383,1.21363,147.472
0.42746,0.00034,0.00007,0.00841,0.00749,0.00163,0.18698,28.28221,5.99347,1.3001,149.559
0.42833,0.00024,0.00007,0.00849,0.00527,0.00166,0.18884,28.3397,4.22878,1.33191,151.668
0.42919,0.00018,0.00007,0.00858,0.004,0.00145,0.19073,28.3972,3.22731,1.16614,153.801
0.43006,0.00025,0.00007,0.00866,0.00547,0.00151,0.19262,28.45469,4.43206,1.21907,155.958
0.43093,0.00031,0.00008,0.00875,0.00684,0.00174,0.19452,28.51219,5.55797,1.41432,158.138
0.4318,0.0002,0.00007,0.00884,0.0044,0.00156,0.19645,28.56975,3.58942,1.27048,160.345
0.43267,0.00021,0.00007,0.00892,0.00475,0.00148,0.19838,28.62725,3.89132,1.21426,162.574
0.43354,0.0003,0.00007,0.00901,0.00669,0.00154,0.20032,28.68475,5.50084,1.26474,164.8269
0.43441,0.0003,0.00007,0.0091,0.00674,0.0015,0.20228,28.74224,5.56501,1.23636,167.105
0.43528,0.00023,0.00007,0.00919,0.00509,0.00156,0.20424,28.79967,4.21834,1.29258,169.4045
0.43615,0.00026,0.00007,0.00928,0.00579,0.00155,0.20623,28.85717,4.82009,1.29377,171.732
0.43702,0.00021,0.00007,0.00936,0.00462,0.0016,0.20822,28.91467,3.86072,1.33912,174.085
0.43789,0.00025,0.00007,0.00946,0.00548,0.0016,0.21023,28.97216,4.59572,1.34633,176.463
0.43875,0.00028,0.00007,0.00955,0.00624,0.00151,0.21225,29.02966,5.25441,1.26905,178.866
0.43962,0.00022,0.00007,0.00964,0.00488,0.00155,0.21428,29.08716,4.12464,1.30859,181.296
0.44049,0.00035,0.00008,0.00973,0.0078,0.0017,0.21633,29.14465,6.62717,1.44823,183.751
0.44136,0.00012,0.00006,0.00982,0.00275,0.00142,0.21839,29.20215,2.34884,1.21282,186.233
0.44223,0.00021,0.00007,0.00992,0.0046,0.00157,0.22046,29.25958,3.93904,1.34148,188.738
0.4431,0.00026,0.00006,0.01001,0.00579,0.00144,0.22254,29.31707,4.97603,1.23828,191.273
0.44397,0.0003,0.00007,0.0101,0.00671,0.00153,0.22464,29.37457,5.78712,1.31863,193.834
0.44484,0.00023,0.00008,0.0102,0.00508,0.00178,0.22675,29.43207,4.40366,1.54184,196.422
0.4457,0.00017,0.00007,0.01029,0.0038,0.00165,0.22887,29.4895,3.30888,1.43428,199.035
0.44657,0.00026,0.00008,0.01039,0.00574,0.00184,0.23101,29.54699,5.00797,1.60749,201.678
0.44744,0.00022,0.00008,0.01049,0.0048,0.00183,0.23316,29.60449,4.2044,1.60056,204.348
0.44831,0.00021,0.00009,0.01058,0.00466,0.00189,0.23532,29.66199,4.10369,1.6638,207.047
0.44918,0.00024,0.00008,0.01068,0.00528,0.00172,0.2375,29.71942,4.66391,1.52218,209.77
0.45005,0.00024,0.00009,0.01078,0.0054,0.00201,0.23969,29.77691,4.7838,1.78353,212.5247
0.45092,0.00027,0.00008,0.01088,0.00605,0.00175,0.24189,29.83434,5.3829,1.55614,215.305
0.45178,0.00026,0.00009,0.01098,0.00574,0.00204,0.24411,29.89184,5.13288,1.81893,218.116
0.45265,0.0002,0.00009,0.01108,0.00434,0.00194,0.24634,29.94927,3.8967,1.74087,220.954
0.45352,0.00011,0.0001,0.01118,0.00256,0.00215,0.24858,30.00677,2.3019,1.93863,223.824
0.45439,0.00016,0.00011,0.01128,0.00359,0.00247,0.25084,30.06426,3.24311,2.23418,226.723
0.45526,0.00025,0.00009,0.01138,0.00561,0.00198,0.25311,30.12169,5.0934,1.79997,229.6478
0.45613,0.00027,0.0001,0.01149,0.00595,0.00213,0.25539,30.17912,5.41541,1.93882,232.603
0.457,0.0003,0.00009,0.01159,0.00677,0.0019,0.25769,30.23662,6.19166,1.73762,235.591
0.45786,0.00021,0.00009,0.01169,0.00462,0.00206,0.26,30.29405,4.23541,1.8892,238.606
0.45873,0.00028,0.0001,0.0118,0.00617,0.0022,0.26232,30.35155,5.68712,2.02389,241.655
0.4596,0.00018,0.0001,0.0119,0.00391,0.00213,0.26466,30.40898,3.61698,1.97064,244.7308
0.46047,0.00023,0.00011,0.01201,0.00519,0.00246,0.26701,30.46647,4.81485,2.28755,247.841
0.46134,0.00017,0.0001,0.01212,0.00375,0.00225,0.26937,30.5239,3.48998,2.09903,250.979
0.46221,0.00019,0.0001,0.01222,0.00418,0.00213,0.27175,30.58133,3.90977,1.99557,254.148
0.46308,0.00009,0.00012,0.01233,0.00193,0.00257,0.27415,30.63883,1.8154,2.41455,257.352
0.46394,0.00012,0.00013,0.01244,0.00266,0.00278,0.27655,30.69626,2.50695,2.62107,260.584
0.46481,0.00028,0.00011,0.01255,0.00633,0.00247,0.27897,30.75369,5.98592,2.33373,263.849
0.46568,0.00015,0.00013,0.01266,0.00337,0.00279,0.28141,30.81112,3.19802,2.64724,267.145
0.46655,0.0001,0.00011,0.01277,0.00218,0.00246,0.28385,30.86855,2.07697,2.33956,270.474
0.46742,0.00012,0.00011,0.01288,0.00256,0.00243,0.28632,30.92605,2.45212,2.32817,273.839
0.46828,0.00028,0.00012,0.01299,0.00626,0.00262,0.28879,30.98348,6.01016,2.51135,277.233
0.46915,0.00032,0.00011,0.0131,0.00714,0.00246,0.29128,31.04091,6.88357,2.37388,280.661
0.47002,0.00033,0.00013,0.01321,0.00734,0.00286,0.29378,31.09834,7.09868,2.76196,284.121
0.47089,0.00015,0.00012,0.01333,0.00333,0.00261,0.2963,31.15577,3.23069,2.52954,287.615
0.47176,0.0002,0.00015,0.01344,0.00443,0.0033,0.29883,31.2132,4.31321,3.2169,291.143
0.47262,0.00023,0.00012,0.01355,0.00501,0.00278,0.30138,31.27063,4.90064,2.71666,294.7054
0.47349,0.00023,0.00012,0.01367,0.00505,0.00267,0.30394,31.32806,4.95183,2.61763,298.3017
0.47436,0.00032,0.00013,0.01379,0.00705,0.00297,0.30652,31.38549,6.94612,2.92996,301.9325
0.47523,0.00038,0.00012,0.0139,0.00854,0.00265,0.3091,31.44292,8.44383,2.62004,305.598
0.4761,0.00016,0.00014,0.01402,0.00355,0.00316,0.31171,31.50035,3.5186,3.13754,309.2986
0.47696,0.00018,0.00014,0.01414,0.00402,0.0032,0.31433,31.55778,4.00663,3.18929,313.034
0.47783,0.00023,0.00014,0.01426,0.00517,0.0032,0.31696,31.61521,5.1701,3.19986,316.806
0.4787,0.00012,0.00014,0.01437,0.00265,0.00308,0.3196,31.67264,2.66248,3.09139,320.613
0.47957,0.00024,0.00014,0.01449,0.00524,0.00301,0.32227,31.73007,5.27652,3.02572,324.4556
0.48044,0.00009,0.00015,0.01461,0.002,0.00327,0.32494,31.7875,2.02423,3.30702,328.335
0.4813,0.00029,0.00015,0.01474,0.00644,0.00341,0.32763,31.84493,6.52574,3.4542,332.25
0.48217,0.00018,0.00016,0.01486,0.00392,0.00358,0.33034,31.90236,3.9854,3.64768,336.203
0.48304,0.00026,0.00014,0.01498,0.00583,0.00318,0.33305,31.95973,5.95149,3.24375,340.188
0.48391,0,0.00016,0.0151,0.00006,0.00353,0.33579,32.01716,0.0618,3.61415,344.214
0.48478,0.00018,0.00014,0.01523,0.00405,0.00319,0.33854,32.07459,4.16883,3.28214,348.278
0.48564,0.00033,0.00017,0.01535,0.00742,0.00375,0.3413,32.13202,7.65834,3.87437,352.38
0.48651,0.00033,0.00017,0.01547,0.00732,0.00368,0.34407,32.18938,7.58153,3.81438,356.5147
0.48738,0.00014,0.00016,0.0156,0.00319,0.00363,0.34687,32.24681,3.31501,3.77922,360.693
0.48825,0.00008,0.00016,0.01573,0.00169,0.00347,0.34968,32.30424,1.76409,3.62087,364.909
0.48911,0.00017,0.00015,0.01585,0.00381,0.00342,0.3525,32.3616,3.99055,3.58652,369.159
0.48998,0.00016,0.00015,0.01598,0.00348,0.00343,0.35533,32.41903,3.65736,3.60814,373.4534
0.49085,0.00015,0.00017,0.01611,0.00341,0.00382,0.35819,32.47647,3.59362,4.02833,377.787
0.49172,0.00021,0.00018,0.01624,0.00459,0.00409,0.36105,32.53383,4.85644,4.3303,382.155
0.49258,0.00023,0.00017,0.01637,0.00507,0.00388,0.36393,32.59126,5.38321,4.12449,386.567
0.49345,0.00009,0.00018,0.0165,0.0019,0.00395,0.36683,32.64862,2.02132,4.21378,391.015
0.49432,0.0003,0.00019,0.01663,0.0066,0.00432,0.36974,32.70605,7.0564,4.61914,395.508
0.49519,0.00029,0.00019,0.01676,0.00639,0.00422,0.37267,32.76342,6.86247,4.52631,400.037
0.49562,0.00029,0.0002,0.01683,0.00647,0.00452,0.37414,32.79213,6.95709,4.85711,402.319