File: 2025/starling_2025/figures/experimental_comparison/saxs_scattering/experiment/fhua/mff_out.csv
#File Plotted Below: fhua.dat,,,,,,,,,,
,,,,,,,,,,
    #Fit from 0.01-0.15 with polymer MFF,,,,,,,,,,
#Initial search parameter for I0 = 157.442,,,,,,,,,,
#Initial search parameter for Rg = 30,,,,,,,,,,
#Initial search parameter for nu = 0.499881,,,,,,,,,,
#BestFit for I0 = 171.279 +- 1.25367,,,,,,,,,,
#BestFit for I(0)/I0 = 1.00000 +- 0.00732,,,,,,,,,,
#BestFit for Rg = 33.36546 +- 0.23758,,,,,,,,,,
#BestFit for nu = 0.54256 +- 0.00935,,,,,,,,,,
#BestFit reduced chisquared = 0.99369,,,,,,,,,,
#-------------,,,,,,,,,,
#-------------,,,,,,,,,,
,,,,,,,,,,
    #q,I(q),Error,fit,I(q)/I0,Error/I0,fit/I0,qRg,((qRg)^2)I(q)/I0,((qRg)^2)*Error/I0,((qRg)^2)*fit/I0
0.00455,306.473,154.602,170.136,1.78932,0.90263,0.99333,0.15178,0.04122,0.02079,0.02288
0.00544,184.909,101.221,169.554,1.07958,0.59097,0.98993,0.18167,0.03563,0.01951,0.03267
0.00634,235.99,70.69821,168.863,1.37781,0.41277,0.9859,0.21157,0.06167,0.01848,0.04413
0.00724,93.54545,53.43913,168.067,0.54616,0.312,0.98125,0.24146,0.03184,0.01819,0.05721
0.00813,153.466,41.42677,167.17,0.896,0.24187,0.97601,0.27135,0.06597,0.01781,0.07186
0.00903,144.933,32.24844,166.176,0.84618,0.18828,0.97021,0.30124,0.07679,0.01709,0.08804
0.00992,197.417,25.73133,165.088,1.15261,0.15023,0.96386,0.33113,0.12638,0.01647,0.10569
0.01082,172.746,21.0091,163.911,1.00857,0.12266,0.95698,0.36102,0.13146,0.01599,0.12473
0.01172,162.871,17.60562,162.647,0.95091,0.10279,0.94961,0.39092,0.14531,0.01571,0.14511
0.01261,169.166,15.18863,161.301,0.98766,0.08868,0.94175,0.42081,0.17489,0.0157,0.16676
0.01351,173.982,13.00139,159.877,1.01578,0.07591,0.93343,0.4507,0.20634,0.01542,0.18961
0.0144,163.178,11.41729,158.378,0.9527,0.06666,0.92468,0.48059,0.22004,0.0154,0.21357
0.0153,168.234,10.18434,156.809,0.98222,0.05946,0.91552,0.51048,0.25596,0.01549,0.23858
0.0162,159.526,9.24796,155.172,0.93138,0.05399,0.90596,0.54037,0.27197,0.01577,0.26454
0.01709,155.415,8.28623,153.472,0.90738,0.04838,0.89603,0.57027,0.29508,0.01573,0.29139
0.01799,156.027,7.65521,151.712,0.91095,0.04469,0.88576,0.60016,0.32812,0.0161,0.31904
0.01888,151.555,7.62675,149.897,0.88485,0.04453,0.87516,0.63005,0.35125,0.01768,0.34741
0.01978,151.669,7.3417,148.0295,0.88551,0.04286,0.86426,0.65994,0.38566,0.01867,0.3764
0.02067,148.328,6.94748,146.114,0.866,0.04056,0.85308,0.68983,0.4121,0.0193,0.40595
0.02157,146.831,6.93757,144.154,0.85726,0.0405,0.84163,0.71972,0.44406,0.02098,0.43597
0.02247,154.312,6.92463,142.154,0.90094,0.04043,0.82995,0.74962,0.50626,0.02272,0.46637
0.02336,127.825,6.53444,140.116,0.7463,0.03815,0.81806,0.77951,0.45347,0.02318,0.49708
0.02426,133.434,6.17065,138.046,0.77904,0.03603,0.80597,0.8094,0.51037,0.0236,0.52801
0.02515,129.737,5.94198,135.946,0.75746,0.03469,0.79371,0.83929,0.53356,0.02444,0.5591
0.02605,127.072,5.64262,133.822,0.7419,0.03294,0.78131,0.86918,0.56049,0.02489,0.59026
0.02695,128.676,5.4158,131.675,0.75127,0.03162,0.76878,0.89907,0.60727,0.02556,0.62142
0.02784,127.478,5.18677,129.51,0.74427,0.03028,0.75614,0.92896,0.64229,0.02613,0.65253
0.02874,133.556,5.07082,127.332,0.77976,0.02961,0.74342,0.95886,0.71691,0.02722,0.6835
0.02963,124.801,4.93368,125.143,0.72864,0.0288,0.73064,0.98875,0.71234,0.02816,0.71429
0.03053,122.589,4.7361,122.947,0.71572,0.02765,0.71782,1.01864,0.74266,0.02869,0.74483
0.03143,128.397,4.66416,120.748,0.74964,0.02723,0.70498,1.04853,0.82417,0.02994,0.77507
0.03232,115.189,4.56253,118.548,0.67252,0.02664,0.69213,1.07842,0.78214,0.03098,0.80495
0.03322,111.512,4.44765,116.349,0.65106,0.02597,0.67929,1.10831,0.79973,0.0319,0.83442
0.03411,112.177,4.45108,114.1528,0.65494,0.02599,0.66647,1.13821,0.84848,0.03367,0.86342
0.03501,108.481,4.36631,111.963,0.63336,0.02549,0.65369,1.1681,0.86419,0.03478,0.89193
0.03591,105.086,4.23115,109.781,0.61353,0.0247,0.64095,1.19799,0.88053,0.03545,0.91988
0.0368,111.584,4.19977,107.611,0.65147,0.02452,0.62828,1.22788,0.98222,0.03697,0.94725
0.0377,107.082,4.20147,105.4529,0.62519,0.02453,0.61568,1.25777,0.98905,0.03881,0.974
0.03859,98.49591,4.10425,103.31,0.57506,0.02396,0.60317,1.28766,0.9535,0.03973,1.0001
0.03949,97.32691,3.99572,101.186,0.56824,0.02333,0.59077,1.31756,0.98643,0.0405,1.02554
0.04038,93.52355,3.99878,99.08109,0.54603,0.02335,0.57848,1.34745,0.99138,0.04239,1.05029
0.04128,91.52618,3.95562,96.999,0.53437,0.02309,0.56632,1.37734,1.01373,0.04381,1.07435
0.04218,97.44691,3.9992,94.9418,0.56894,0.02335,0.55431,1.40723,1.12667,0.04624,1.0977
0.04307,93.52045,4.08208,92.91184,0.54601,0.02383,0.54246,1.43712,1.12769,0.04922,1.12035
0.04397,79.12818,4.17973,90.91173,0.46198,0.0244,0.53078,1.46701,0.99425,0.05252,1.14231
0.04486,90.10473,4.17898,88.9434,0.52607,0.0244,0.51929,1.4969,1.17878,0.05467,1.16358
0.04576,83.85827,4.17708,87.00917,0.4896,0.02439,0.508,1.5268,1.14131,0.05685,1.1842
0.04666,90.88636,4.21931,85.10965,0.53063,0.02463,0.49691,1.55669,1.28587,0.0597,1.20414
0.04755,79.85327,4.1748,83.24483,0.46622,0.02437,0.48602,1.58658,1.17358,0.06136,1.22343
0.04845,79.36009,4.1882,81.41471,0.46334,0.02445,0.47533,1.61647,1.2107,0.06389,1.24204
0.04934,81.921,4.18634,79.61932,0.47829,0.02444,0.46485,1.64637,1.29641,0.06625,1.25999
0.05024,78.56582,4.12212,77.85883,0.4587,0.02407,0.45457,1.67625,1.28887,0.06762,1.27727
0.05114,79.20073,4.10294,76.13288,0.46241,0.02395,0.4445,1.70615,1.34604,0.06973,1.2939
0.05203,73.52573,4.08308,74.44166,0.42927,0.02384,0.43462,1.73604,1.29376,0.07185,1.30988
0.05293,82.31491,4.08227,72.78517,0.48059,0.02383,0.42495,1.76593,1.49872,0.07433,1.32521
0.05382,71.64182,4.04211,71.16343,0.41828,0.0236,0.41548,1.79582,1.34893,0.07611,1.33992
0.05472,68.08673,4.01203,69.57644,0.39752,0.02342,0.40622,1.82571,1.32503,0.07808,1.35402
0.05561,68.374,4.03055,68.02437,0.3992,0.02353,0.39716,1.8556,1.37454,0.08103,1.36751
0.05651,71.91227,3.97584,66.50689,0.41985,0.02321,0.3883,1.8855,1.49262,0.08252,1.38043
0.05741,63.23764,3.95707,65.02418,0.36921,0.0231,0.37964,1.91539,1.35452,0.08476,1.39279
0.0583,67.45555,3.92895,63.57624,0.39383,0.02294,0.37119,1.94528,1.49031,0.0868,1.40461
0.0592,62.74673,3.92107,62.16307,0.36634,0.02289,0.36293,1.97517,1.42921,0.08931,1.41592
0.06009,60.55064,3.90968,60.78469,0.35352,0.02283,0.35489,2.00506,1.42125,0.09177,1.42675
0.06099,53.86282,3.88989,59.44093,0.31447,0.02271,0.34704,2.03496,1.30225,0.09405,1.43712
0.06189,54.93918,3.85654,58.13133,0.32076,0.02252,0.3394,2.06484,1.36758,0.096,1.44704
0.06278,60.795,3.80358,56.85493,0.35495,0.02221,0.33194,2.09474,1.55748,0.09744,1.45654
0.06368,52.12309,3.81698,55.61119,0.30432,0.02229,0.32468,2.12463,1.3737,0.1006,1.46563
0.06457,50.44636,3.82283,54.39944,0.29453,0.02232,0.31761,2.15452,1.36719,0.10361,1.47432
0.06547,57.75391,3.79864,53.21899,0.33719,0.02218,0.31072,2.18441,1.60897,0.10583,1.48263
0.06637,51.51027,3.74649,52.06918,0.30074,0.02187,0.304,2.21431,1.47457,0.10725,1.49057
0.06726,54.49173,3.74883,50.94945,0.31815,0.02189,0.29746,2.24419,1.60231,0.11023,1.49815
0.06816,53.51236,3.75562,49.85887,0.31243,0.02193,0.2911,2.27409,1.61571,0.11339,1.5054
0.06905,46.20036,3.71277,48.7969,0.26974,0.02168,0.2849,2.30398,1.43185,0.11507,1.51232
0.06995,40.46109,3.67758,47.76284,0.23623,0.02147,0.27886,2.33387,1.28673,0.11695,1.51894
0.07084,42.41064,3.69797,46.75603,0.24761,0.02159,0.27298,2.36376,1.3835,0.12063,1.52525
0.07174,42.92855,3.70596,45.77579,0.25064,0.02164,0.26726,2.39365,1.43604,0.12397,1.53128
0.07264,48.04536,3.66375,44.82144,0.28051,0.02139,0.26169,2.42355,1.64759,0.12564,1.53704
0.07353,41.34709,3.63205,43.89241,0.2414,0.02121,0.25626,2.45344,1.45308,0.12764,1.54253
0.07443,37.47645,3.62271,42.98781,0.2188,0.02115,0.25098,2.48333,1.34934,0.13044,1.54778
0.07532,49.46018,3.61633,42.10708,0.28877,0.02111,0.24584,2.51322,1.82395,0.13336,1.55279
0.07622,44.086,3.59457,41.24958,0.25739,0.02099,0.24083,2.54311,1.66467,0.13573,1.55757
0.07712,45.77027,3.57579,40.41475,0.26723,0.02088,0.23596,2.573,1.76913,0.13821,1.56213
0.07801,38.55682,3.53691,39.60203,0.22511,0.02065,0.23121,2.6029,1.52514,0.13991,1.56649
0.07891,32.90545,3.55112,38.81086,0.19212,0.02073,0.22659,2.63279,1.33167,0.14371,1.57066
0.0798,35.61055,3.54924,38.04077,0.20791,0.02072,0.2221,2.66268,1.47405,0.14692,1.57464
0.0807,38.51827,3.51985,37.29102,0.22489,0.02055,0.21772,2.69257,1.63041,0.14899,1.57846
0.0816,34.09745,3.64968,36.56115,0.19908,0.02131,0.21346,2.72246,1.47551,0.15793,1.58212
0.08249,37.25145,3.80188,35.85059,0.21749,0.0222,0.20931,2.75235,1.64758,0.16815,1.58563
0.08339,29.84955,3.93584,35.15879,0.17427,0.02298,0.20527,2.78225,1.34904,0.17788,1.58899
0.08428,34.73118,3.92009,34.48518,0.20278,0.02289,0.20134,2.81214,1.60357,0.18099,1.59222
0.08518,36.57673,3.91983,33.82927,0.21355,0.02289,0.19751,2.84203,1.72487,0.18485,1.59531
0.08607,28.56018,4.00543,33.19037,0.16675,0.02339,0.19378,2.87192,1.37531,0.19288,1.59828
0.08697,41.51145,3.74735,32.56798,0.24236,0.02188,0.19015,2.90181,2.04081,0.18423,1.60112
0.08787,33.91991,3.58969,31.96154,0.19804,0.02096,0.18661,2.9317,1.70212,0.18013,1.60385
0.08876,35.14391,3.50267,31.3705,0.20519,0.02045,0.18315,2.96159,1.79969,0.17937,1.60646
0.08966,30.42336,3.53097,30.7943,0.17762,0.02062,0.17979,2.99149,1.58956,0.18449,1.60894
0.09055,29.11482,3.49666,30.23238,0.16998,0.02041,0.17651,3.02138,1.55175,0.18636,1.61131
0.09145,33.06091,3.46038,29.68439,0.19302,0.0202,0.17331,3.05127,1.7971,0.1881,1.61356
0.09235,32.01336,3.42242,29.14989,0.18691,0.01998,0.17019,3.08116,1.77442,0.1897,1.6157
0.09324,31.27164,3.42198,28.62859,0.18258,0.01998,0.16715,3.11105,1.7671,0.19337,1.61775
0.09414,23.77036,3.43507,28.12016,0.13878,0.02006,0.16418,3.14094,1.36915,0.19786,1.6197
0.09503,27.11445,3.40466,27.62428,0.15831,0.01988,0.16128,3.17084,1.59164,0.19986,1.62157
0.09593,26.32445,3.35256,27.14061,0.15369,0.01957,0.15846,3.20073,1.57454,0.20053,1.62335
0.09683,33.05509,3.3441,26.66882,0.19299,0.01952,0.1557,3.23062,2.01422,0.20377,1.62507
0.09772,26.13909,3.35152,26.20863,0.15261,0.01957,0.15302,3.26051,1.6224,0.20802,1.62671
0.09862,19.96191,3.34283,25.7596,0.11655,0.01952,0.1504,3.2904,1.26182,0.2113,1.62829
0.09951,28.221,3.28491,25.32145,0.16477,0.01918,0.14784,3.32029,1.81644,0.21143,1.62981
0.10041,24.26227,3.31839,24.89376,0.14165,0.01937,0.14534,3.35019,1.58989,0.21745,1.63127
0.10131,26.62536,3.30187,24.47635,0.15545,0.01928,0.1429,3.38009,1.77602,0.22025,1.63267
0.1022,20.82318,3.27368,24.06881,0.12157,0.01911,0.14052,3.40998,1.41367,0.22225,1.63401
0.1031,24.10727,3.24662,23.67128,0.14075,0.01896,0.1382,3.43985,1.66541,0.22429,1.63529
0.10399,20.16036,3.24257,23.28252,0.1177,0.01893,0.13593,3.46974,1.41706,0.22792,1.63652
0.10489,23.323,3.26491,22.90266,0.13617,0.01906,0.13372,3.49964,1.66773,0.23346,1.63768
0.10578,26.46318,3.24246,22.53137,0.1545,0.01893,0.13155,3.52953,1.92474,0.23583,1.63877
0.10668,23.50718,3.21039,22.16845,0.13725,0.01874,0.12943,3.55943,1.73883,0.23747,1.6398
0.10758,24.832,3.20788,21.8137,0.14498,0.01873,0.12736,3.58932,1.86781,0.24129,1.64078
0.10847,23.00591,3.20592,21.46693,0.13432,0.01872,0.12533,3.61922,1.7594,0.24518,1.64171
0.10937,22.50991,3.18771,21.12795,0.13142,0.01861,0.12335,3.64911,1.75003,0.24783,1.64259
0.11026,15.60364,3.15266,20.79657,0.0911,0.01841,0.12142,3.67901,1.23306,0.24914,1.64342
0.11116,18.81664,3.16384,20.47295,0.10986,0.01847,0.11953,3.70887,1.5112,0.25409,1.64422
0.11206,24.00073,3.15568,20.15618,0.14013,0.01842,0.11768,3.73877,1.95874,0.25754,1.64498
0.11295,21.70427,3.14314,19.84643,0.12672,0.01835,0.11587,3.76866,1.79976,0.26064,1.64571
0.11385,21.85645,3.11578,19.54351,0.12761,0.01819,0.1141,3.79856,1.84125,0.26248,1.6464
0.11474,21.03127,3.10526,19.24724,0.12279,0.01813,0.11237,3.82845,1.79973,0.26573,1.64707
0.11564,23.11509,3.10995,18.95741,0.13496,0.01816,0.11068,3.85835,2.00907,0.2703,1.6477
0.11653,22.25245,3.09936,18.67384,0.12992,0.0181,0.10903,3.88824,1.96418,0.27357,1.6483
0.11743,22.30255,3.08497,18.39634,0.13021,0.01801,0.10741,3.91814,1.99899,0.27651,1.64887
0.11833,18.79655,3.07298,18.12501,0.10974,0.01794,0.10582,3.948,1.71052,0.27965,1.64941
0.11922,18.337,3.06259,17.85906,0.10706,0.01788,0.10427,3.9779,1.69407,0.28294,1.64992
0.12012,21.76718,3.06113,17.5986,0.12709,0.01787,0.10275,4.00779,2.04131,0.28707,1.65038
0.12101,19.13155,3.03723,17.34347,0.1117,0.01773,0.10126,4.03769,1.82101,0.28909,1.65081
0.12191,20.63382,3.0297,17.09354,0.12047,0.01769,0.0998,4.06758,1.99319,0.29266,1.65121
0.12281,20.429,3.02865,16.84871,0.11927,0.01768,0.09837,4.09748,2.00252,0.29688,1.65157
0.1237,13.97018,3.03154,16.60885,0.08156,0.0177,0.09697,4.12737,1.38946,0.30151,1.6519
0.1246,14.92618,2.98608,16.37387,0.08715,0.01743,0.0956,4.15727,1.50613,0.30131,1.6522
0.12549,16.40591,2.9774,16.14365,0.09578,0.01738,0.09425,4.18716,1.67933,0.30477,1.65249
0.12639,18.29918,2.97801,15.91831,0.10684,0.01739,0.09294,4.21703,1.89994,0.3092,1.65275
0.12729,19.70318,3.1842,15.69726,0.11504,0.01859,0.09165,4.24692,2.07482,0.33531,1.65298
0.12818,11.29955,3.23772,15.48063,0.06597,0.0189,0.09038,4.27682,1.2067,0.34576,1.6532
0.12908,12.37664,3.10377,15.26831,0.07226,0.01812,0.08914,4.30671,1.34027,0.33611,1.6534
0.12997,16.22773,3.07546,15.06018,0.09474,0.01796,0.08793,4.33661,1.78178,0.33768,1.65359
0.13087,10.21718,3.06727,14.85614,0.05965,0.01791,0.08674,4.3665,1.13735,0.34144,1.65375
0.13176,13.12582,3.02884,14.65607,0.07663,0.01768,0.08557,4.3964,1.48121,0.3418,1.6539
0.13266,10.90443,3.0055,14.45986,0.06366,0.01755,0.08442,4.42629,1.24733,0.34379,1.65402
0.13356,12.75227,2.98153,14.2674,0.07445,0.01741,0.0833,4.45619,1.47847,0.34567,1.65413
0.13445,11.46545,2.96582,14.07878,0.06694,0.01732,0.0822,4.48605,1.34715,0.34847,1.65421
0.13535,19.122,2.94197,13.89348,0.11164,0.01718,0.08112,4.51595,2.27681,0.35029,1.65426
0.13624,12.71309,2.9061,13.71161,0.07422,0.01697,0.08005,4.54584,1.53383,0.35062,1.6543
0.13714,13.94545,2.91421,13.5331,0.08142,0.01701,0.07901,4.57574,1.70471,0.35624,1.65431
0.13804,13.06427,2.91398,13.35789,0.07627,0.01701,0.07799,4.60563,1.61793,0.36088,1.6543
0.13893,12.92309,2.91606,13.18592,0.07545,0.01703,0.07699,4.63553,1.62129,0.36584,1.65427
0.13983,11.04755,2.87924,13.0171,0.0645,0.01681,0.076,4.66542,1.40393,0.3659,1.65422
0.14072,13.89709,2.8644,12.85139,0.08114,0.01672,0.07503,4.69532,1.78875,0.36869,1.65416
0.14162,9.62327,2.8794,12.68888,0.05618,0.01681,0.07408,4.72518,1.25446,0.37535,1.65408
0.14252,6.60945,2.87575,12.52915,0.03859,0.01679,0.07315,4.75508,0.87252,0.37963,1.65399
0.14341,10.60458,2.84481,12.37232,0.06191,0.01661,0.07223,4.78497,1.41758,0.38028,1.65389
0.14431,14.20845,2.83976,12.21831,0.08296,0.01658,0.07134,4.81487,1.92314,0.38437,1.65377
0.1452,6.38,2.99952,12.06706,0.03725,0.01751,0.07045,4.84476,0.8743,0.41105,1.65365
0.1461,15.18682,3.06995,11.9185,0.08867,0.01792,0.06959,4.87466,2.10694,0.42591,1.65351
0.14699,14.68273,3.08315,11.77257,0.08572,0.018,0.06873,4.90456,2.06206,0.433,1.65336
0.14789,7.42909,3.10517,11.62919,0.04337,0.01813,0.0679,4.93445,1.05611,0.44143,1.65319
0.14879,6.328,3.13287,11.4883,0.03695,0.01829,0.06707,4.96435,0.91051,0.45078,1.65301
0.14968,13.95855,3.09349,11.34999,0.0815,0.01806,0.06627,4.99421,2.03268,0.45048,1.65282
0.15058,12.45718,2.93213,11.21388,0.07273,0.01712,0.06547,5.0241,1.83583,0.43211,1.65261
0.15147,5.46618,2.87132,11.08007,0.03191,0.01676,0.06469,5.054,0.81517,0.4282,1.65238
0.15237,15.55303,2.85643,10.94853,0.09081,0.01668,0.06392,5.08389,2.34695,0.43104,1.65213
0.15327,8.99882,2.85943,10.81921,0.05254,0.01669,0.06317,5.11379,1.37394,0.43658,1.65188
0.15416,14.76391,2.83962,10.69206,0.0862,0.01658,0.06242,5.14369,2.28059,0.43864,1.65161
0.15506,14.60936,2.81985,10.56705,0.0853,0.01646,0.0617,5.17358,2.28302,0.44066,1.65133
0.15595,11.22664,2.81318,10.44414,0.06555,0.01642,0.06098,5.20348,1.77473,0.44471,1.65103
0.15685,9.60736,2.83123,10.32327,0.05609,0.01653,0.06027,5.23337,1.53626,0.45273,1.65073
0.15774,8.566,2.78587,10.20455,0.05001,0.01627,0.05958,5.26323,1.38541,0.45057,1.65042
0.15864,12.37421,2.78407,10.08765,0.07225,0.01625,0.0589,5.29313,2.02413,0.45541,1.6501
0.15954,13.433,2.78399,9.97268,0.07843,0.01625,0.05822,5.32302,2.22222,0.46055,1.64978
0.16043,6.613,2.77486,9.85959,0.03861,0.0162,0.05756,5.35292,1.10631,0.46421,1.64944
0.16133,4.16255,2.75127,9.74833,0.0243,0.01606,0.05691,5.38282,0.70416,0.46542,1.64909
0.16223,6.26373,2.7379,9.63887,0.03657,0.01599,0.05628,5.41271,1.07142,0.46832,1.64874
0.16312,9.82455,2.73377,9.53117,0.05736,0.01596,0.05565,5.44261,1.69911,0.47279,1.64838
0.16402,7.90564,2.73835,9.42517,0.04616,0.01599,0.05503,5.4725,1.38231,0.4788,1.648
0.16491,12.11155,2.74025,9.32084,0.07071,0.016,0.05442,5.5024,2.14092,0.48438,1.64761
0.16581,11.65036,2.71385,9.21825,0.06802,0.01584,0.05382,5.53226,2.08181,0.48494,1.64721
0.1667,12.48809,2.70971,9.11714,0.07291,0.01582,0.05323,5.56215,2.25568,0.48945,1.6468
0.1676,15.246,2.70403,9.0176,0.08901,0.01579,0.05265,5.59205,2.78352,0.49369,1.64638
0.1685,6.85655,2.70606,8.91961,0.04003,0.0158,0.05208,5.62195,1.26525,0.49935,1.64594
0.16939,9.29068,2.68746,8.82313,0.05424,0.01569,0.05151,5.65184,1.7327,0.50121,1.6455
0.17029,1.691,2.66859,8.72814,0.00987,0.01558,0.05096,5.68174,0.31871,0.50297,1.64505
0.17118,9.98236,2.68563,8.63462,0.05828,0.01568,0.05041,5.71163,1.9013,0.51152,1.6446
0.17208,11.50783,2.67574,8.54253,0.06719,0.01562,0.04987,5.74153,2.21485,0.51499,1.64414
0.17297,8.55118,2.65133,8.45195,0.04993,0.01548,0.04935,5.77139,1.66297,0.51561,1.64367
0.17387,9.35236,2.64321,8.36265,0.0546,0.01543,0.04882,5.80129,1.83766,0.51937,1.64319
0.17477,11.49545,2.64801,8.27471,0.06712,0.01546,0.04831,5.83118,2.2821,0.52569,1.64271
0.17566,12.58202,2.64643,8.18809,0.07346,0.01545,0.04781,5.86108,2.52349,0.53078,1.64223
0.17656,1.80073,2.62313,8.10278,0.01051,0.01531,0.04731,5.89097,0.36485,0.53148,1.64174
0.17746,11.23182,2.61326,8.01873,0.06558,0.01526,0.04682,5.92087,2.29888,0.53487,1.64124
0.17835,3.78631,2.61541,7.93594,0.02211,0.01527,0.04633,5.95076,0.78281,0.54073,1.64074
0.17925,9.43036,2.61749,7.85436,0.05506,0.01528,0.04586,5.98066,1.96935,0.54661,1.64023
0.18014,9.87171,2.60319,7.77397,0.05764,0.0152,0.04539,6.01055,2.08218,0.54907,1.63971
0.18104,8.6108,2.59469,7.69485,0.05027,0.01515,0.04493,6.04042,1.83431,0.55273,1.63919
0.18193,6.47373,2.59817,7.61678,0.0378,0.01517,0.04447,6.07031,1.39275,0.55897,1.63866
0.18283,9.45165,2.59801,7.53984,0.05518,0.01517,0.04402,6.10021,2.05349,0.56445,1.63813
0.18373,4.82679,2.55827,7.46402,0.02818,0.01494,0.04358,6.1301,1.05899,0.56128,1.63759
0.18462,8.64164,2.55988,7.38928,0.05045,0.01495,0.04314,6.16,1.91449,0.56712,1.63704
0.18552,9.95635,2.56486,7.31563,0.05813,0.01497,0.04271,6.18989,2.22722,0.57375,1.63649
0.18641,11.69648,2.57632,7.24302,0.06829,0.01504,0.04229,6.21979,2.64182,0.5819,1.63594
0.18731,9.89923,2.54833,7.17146,0.0578,0.01488,0.04187,6.24968,2.25743,0.58112,1.63538
0.18821,11.44277,2.5385,7.10091,0.06681,0.01482,0.04146,6.27958,2.63444,0.58443,1.63483
0.1891,6.21372,2.53741,7.03144,0.03628,0.01481,0.04105,6.30944,1.44421,0.58975,1.63426
0.19,6.32675,2.53147,6.96287,0.03694,0.01478,0.04065,6.33934,1.48445,0.59396,1.6337
0.19089,7.62102,2.52835,6.89527,0.04449,0.01476,0.04026,6.36923,1.80503,0.59883,1.63313
0.19179,4.70935,2.51104,6.82861,0.0275,0.01466,0.03987,6.39913,1.1259,0.60033,1.63256
0.19268,5.31673,2.51156,6.76287,0.03104,0.01466,0.03948,6.42902,1.28301,0.60608,1.63199
0.19358,6.68877,2.51856,6.69803,0.03905,0.0147,0.03911,6.45892,1.62915,0.61343,1.63141
0.19448,6.99879,2.49388,6.63409,0.04086,0.01456,0.03873,6.48881,1.72048,0.61306,1.63083
0.19537,2.89384,2.48333,6.57101,0.0169,0.0145,0.03836,6.51871,0.71795,0.6161,1.63024
0.19627,5.66803,2.47603,6.50886,0.03309,0.01446,0.038,6.54857,1.41913,0.61993,1.62965
0.19716,9.81313,2.50104,6.44748,0.05729,0.0146,0.03764,6.57847,2.47944,0.63193,1.62905
0.19806,9.9603,2.49001,6.38692,0.05815,0.01454,0.03729,6.60836,2.53955,0.63487,1.62845
0.19896,3.97905,2.47014,6.32718,0.02323,0.01442,0.03694,6.63826,1.02373,0.63552,1.62785
0.19985,8.17348,2.46594,6.26825,0.04772,0.0144,0.0366,6.66815,2.12185,0.64016,1.62725
0.20075,10.51674,2.46352,6.21011,0.0614,0.01438,0.03626,6.69805,2.7547,0.64528,1.62664
0.20164,3.7592,2.46809,6.15274,0.02195,0.01441,0.03592,6.72794,0.99347,0.65226,1.62603
0.20254,6.81072,2.45016,6.09615,0.03976,0.01431,0.03559,6.75784,1.81595,0.65329,1.62543
0.20344,3.44355,2.45258,6.0403,0.0201,0.01432,0.03527,6.78773,0.9263,0.65973,1.62482
0.20433,4.26513,2.44763,5.98526,0.0249,0.01429,0.03494,6.8176,1.15742,0.66421,1.62421
0.20523,8.02455,2.43071,5.93089,0.04685,0.01419,0.03463,6.84749,2.19675,0.66542,1.6236
0.20612,10.49355,2.44536,5.87724,0.06127,0.01428,0.03431,6.87739,2.89778,0.67528,1.62299
0.20702,5.48424,2.4192,5.82429,0.03202,0.01412,0.034,6.90728,1.52766,0.67388,1.62238
0.20791,8.15051,2.46365,5.77203,0.04759,0.01438,0.0337,6.93718,2.29006,0.69222,1.62177
0.20881,7.83114,2.5611,5.72045,0.04572,0.01495,0.0334,6.96707,2.21933,0.72581,1.62117
0.20971,11.68686,2.58721,5.66954,0.06823,0.01511,0.0331,6.99697,3.34052,0.73952,1.62056
0.2106,4.32561,2.59787,5.61929,0.02525,0.01517,0.03281,7.02687,1.247,0.74892,1.61995
0.2115,8.07311,2.62588,5.56968,0.04713,0.01533,0.03252,7.05676,2.34719,0.76345,1.61934
0.21239,5.6177,2.63861,5.52076,0.0328,0.01541,0.03223,7.08662,1.64715,0.77366,1.61873
0.21329,7.90922,2.52588,5.47242,0.04618,0.01475,0.03195,7.11652,2.33865,0.74687,1.61812
0.21419,5.79572,2.47711,5.42469,0.03384,0.01446,0.03167,7.14641,1.72814,0.73862,1.61751
0.21508,5.14365,2.48071,5.37757,0.03003,0.01448,0.0314,7.17631,1.54657,0.74589,1.6169
0.21598,6.76319,2.47109,5.33104,0.03949,0.01443,0.03112,7.2062,2.05051,0.7492,1.6163
0.21687,2.82166,2.44554,5.28511,0.01647,0.01428,0.03086,7.2361,0.8626,0.74762,1.61569
0.21777,10.09064,2.42167,5.23975,0.05891,0.01414,0.03059,7.266,3.11032,0.74645,1.61509
0.21867,6.0456,2.42286,5.19497,0.0353,0.01415,0.03033,7.29589,1.87885,0.75298,1.61449
0.21956,6.82221,2.41458,5.15079,0.03983,0.0141,0.03007,7.32575,2.1376,0.75656,1.61389
0.22046,1.17802,2.4079,5.10712,0.00688,0.01406,0.02982,7.35565,0.37213,0.76064,1.6133
0.22135,4.53347,2.39693,5.06399,0.02647,0.01399,0.02957,7.38554,1.44375,0.76334,1.6127
0.22225,6.58193,2.39406,5.02139,0.03843,0.01398,0.02932,7.41544,2.11311,0.76861,1.61211
0.22315,3.0288,2.39306,4.97931,0.01768,0.01397,0.02907,7.44533,0.98025,0.77449,1.61151
0.22404,6.53786,2.38387,4.93774,0.03817,0.01392,0.02883,7.47523,2.13295,0.77773,1.61092
0.22494,0.86249,2.37073,4.89668,0.00504,0.01384,0.02859,7.50513,0.28364,0.77964,1.61033
0.22583,3.55621,2.3628,4.85612,0.02076,0.0138,0.02835,7.53502,1.17883,0.78323,1.60973
0.22673,5.72324,2.36755,4.81604,0.03341,0.01382,0.02812,7.56492,1.91226,0.79105,1.60914
0.22762,0.1788,2.35867,4.77649,0.00104,0.01377,0.02789,7.59478,0.06021,0.79432,1.60855
0.22852,6.92172,2.33413,4.73736,0.04041,0.01363,0.02766,7.62467,2.34938,0.79225,1.60796
0.22942,3.17379,2.34262,4.69871,0.01853,0.01368,0.02743,7.65457,1.08572,0.80138,1.60737
0.23031,7.2179,2.34521,4.66051,0.04214,0.01369,0.02721,7.68446,2.48848,0.80855,1.60678
0.23121,1.3749,2.34592,4.62277,0.00803,0.0137,0.02699,7.71436,0.47771,0.8151,1.6062
0.2321,3.21156,2.31909,4.58548,0.01875,0.01354,0.02677,7.74426,1.12453,0.81203,1.60561
0.233,10.66195,2.31849,4.54862,0.06225,0.01354,0.02656,7.77415,3.76218,0.8181,1.60503
0.2339,5.96802,2.32723,4.5122,0.03484,0.01359,0.02634,7.80405,2.1221,0.82751,1.60444
0.23479,6.66825,2.31924,4.47621,0.03893,0.01354,0.02613,7.83394,2.38929,0.831,1.60386
0.23569,2.70452,2.30071,4.44067,0.01579,0.01343,0.02593,7.8638,0.97645,0.83066,1.60328
0.23658,7.06485,2.28906,4.40551,0.04125,0.01336,0.02572,7.8937,2.57016,0.83275,1.60271
0.23748,4.24934,2.30426,4.37075,0.02481,0.01345,0.02552,7.9236,1.55762,0.84464,1.60213
0.23838,4.27819,2.30226,4.3364,0.02498,0.01344,0.02532,7.95349,1.58005,0.85029,1.60155
0.23927,1.24275,2.28171,4.30243,0.00726,0.01332,0.02512,7.98339,0.46244,0.84905,1.60098
0.24017,4.12147,2.27333,4.26886,0.02406,0.01327,0.02492,8.01328,1.54515,0.85228,1.6004
0.24106,7.4573,2.27732,4.23566,0.04354,0.0133,0.02473,8.04318,2.81665,0.86015,1.59982
0.24196,4.13945,2.27441,4.20283,0.02417,0.01328,0.02454,8.07307,1.57513,0.86545,1.59925
0.24285,7.4311,2.26469,4.17041,0.04339,0.01322,0.02435,8.10293,2.84862,0.86814,1.59867
0.24375,2.50098,2.24387,4.13833,0.0146,0.0131,0.02416,8.13283,0.96581,0.86652,1.5981
0.24465,-0.08721,2.25567,4.1066,-0.00051,0.01317,0.02398,8.16273,-0.03393,0.87749,1.59753
0.24554,3.91822,2.25609,4.07522,0.02288,0.01317,0.02379,8.19262,1.53543,0.88409,1.59696
0.24644,4.52052,2.24459,4.0442,0.02639,0.0131,0.02361,8.22252,1.78441,0.88602,1.59639
0.24733,3.7469,2.22455,4.01352,0.02188,0.01299,0.02343,8.25241,1.48981,0.88451,1.59582
0.24823,-0.26486,2.23901,3.98318,-0.00155,0.01307,0.02326,8.28231,-0.10608,0.89672,1.59525
0.24913,1.40773,2.24372,3.95318,0.00822,0.0131,0.02308,8.3122,0.56787,0.9051,1.59469
0.25002,1.83161,2.23119,3.92351,0.01069,0.01303,0.02291,8.3421,0.74418,0.90653,1.59412
0.25092,3.26342,2.22452,3.8942,0.01905,0.01299,0.02274,8.37196,1.33544,0.9103,1.59356
0.25181,3.31729,2.22221,3.86518,0.01937,0.01297,0.02257,8.40186,1.36719,0.91587,1.593
0.25271,2.64565,2.22138,3.83647,0.01545,0.01297,0.0224,8.43175,1.09815,0.92205,1.59244
0.25361,2.79627,2.20976,3.80808,0.01633,0.0129,0.02223,8.46165,1.16892,0.92374,1.59188
0.2545,-0.45688,2.20007,3.77999,-0.00267,0.01284,0.02207,8.49154,-0.19234,0.9262,1.59133
0.2554,0.21671,2.21793,3.7522,0.00127,0.01295,0.02191,8.52144,0.09188,0.94031,1.59077
0.25629,6.8862,2.21077,3.72471,0.0402,0.01291,0.02175,8.55133,2.93997,0.94386,1.59022
0.25719,3.01642,2.20114,3.69752,0.01761,0.01285,0.02159,8.58123,1.29684,0.94633,1.58966
0.25809,1.88476,2.18739,3.67061,0.011,0.01277,0.02143,8.61112,0.81597,0.94698,1.58911
0.25898,5.95505,2.17622,3.64403,0.03477,0.01271,0.02128,8.64099,2.59602,0.94869,1.58856
0.25988,4.48815,2.18987,3.61769,0.0262,0.01279,0.02112,8.67088,1.97011,0.96126,1.58801
0.26077,0.34641,2.18235,3.59164,0.00202,0.01274,0.02097,8.70078,0.15311,0.96458,1.58747
0.26167,3.11935,2.17459,3.56586,0.01821,0.0127,0.02082,8.73067,1.38821,0.96776,1.58692
0.26256,1.40838,2.16381,3.54036,0.00822,0.01263,0.02067,8.76057,0.63108,0.96957,1.58638
0.26346,5.31072,2.17273,3.51512,0.03101,0.01269,0.02052,8.79046,2.39592,0.98022,1.58584
0.26436,3.8802,2.1739,3.49015,0.02265,0.01269,0.02038,8.82036,1.76247,0.98743,1.58531
0.26525,4.30369,2.14541,3.46544,0.02513,0.01253,0.02023,8.85025,1.96811,0.98111,1.58477
0.26615,2.45067,2.15619,3.44099,0.01431,0.01259,0.02009,8.88015,1.12829,0.99271,1.58424
0.26704,-0.08767,2.16377,3.41683,-0.00051,0.01263,0.01995,8.91001,-0.04064,1.00291,1.58371
0.26794,3.32475,2.16609,3.39288,0.01941,0.01265,0.01981,8.93991,1.55139,1.01074,1.58318
0.26883,3.9879,2.1426,3.36919,0.02328,0.01251,0.01967,8.9698,1.8733,1.00647,1.58266
0.26973,6.7407,2.12699,3.34574,0.03936,0.01242,0.01953,8.9997,3.18755,1.00581,1.58214
0.27063,9.58105,2.14444,3.32253,0.05594,0.01252,0.0194,9.02959,4.56085,1.02081,1.58162
0.27152,4.26457,2.21049,3.29955,0.0249,0.01291,0.01926,9.05949,2.04352,1.05923,1.5811
0.27242,5.7496,2.24998,3.27682,0.03357,0.01314,0.01913,9.08938,2.77334,1.08529,1.58058
0.27331,5.09977,2.25558,3.25431,0.02977,0.01317,0.019,9.11928,2.4761,1.09516,1.58007
0.27421,2.4477,2.35383,3.23206,0.01429,0.01374,0.01887,9.14914,1.19623,1.15036,1.57956
0.27511,-0.19755,2.43822,3.21,-0.00115,0.01424,0.01874,9.17904,-0.09718,1.1994,1.57905
0.276,6.7329,2.49626,3.18817,0.03931,0.01457,0.01861,9.20893,3.33363,1.23596,1.57854
0.2769,2.1037,2.55568,3.16656,0.01228,0.01492,0.01849,9.23883,1.04837,1.27361,1.57804
0.27779,2.70718,2.6083,3.14517,0.01581,0.01523,0.01836,9.26872,1.35786,1.30826,1.57754
0.27869,2.04337,2.64332,3.12398,0.01193,0.01543,0.01824,9.29862,1.03153,1.33439,1.57704
0.27959,-0.4368,2.6719,3.10301,-0.00255,0.0156,0.01812,9.32851,-0.22192,1.35751,1.57654
0.28048,3.67863,2.68174,3.08225,0.02148,0.01566,0.018,9.35841,1.88099,1.37125,1.57604
0.28138,0.74782,2.72993,3.06169,0.00437,0.01594,0.01788,9.38831,0.38483,1.40482,1.57555
0.28227,1.82468,2.76551,3.04135,0.01065,0.01615,0.01776,9.41817,0.94497,1.4322,1.57505
0.28317,4.29913,2.78035,3.02119,0.0251,0.01623,0.01764,9.44806,2.24059,1.44904,1.57456
0.28407,5.93444,2.7929,3.00122,0.03465,0.01631,0.01752,9.47796,3.11247,1.46481,1.57407
0.28496,1.30595,2.84832,2.98145,0.00762,0.01663,0.01741,9.50785,0.68927,1.50332,1.57358
0.28586,4.89655,2.88984,2.96187,0.02859,0.01687,0.01729,9.53775,2.60063,1.53483,1.57309
0.28675,1.62705,2.85836,2.94247,0.0095,0.01669,0.01718,9.56764,0.86958,1.52765,1.5726
0.28765,3.54498,2.86775,2.92326,0.0207,0.01674,0.01707,9.59754,1.90647,1.54226,1.57211
0.28854,-2.83028,2.90194,2.90423,-0.01652,0.01694,0.01696,9.62744,-1.53161,1.57038,1.57162
0.28944,4.44252,2.95147,2.88538,0.02594,0.01723,0.01685,9.65733,2.41902,1.60712,1.57114
0.29034,3.94495,2.99035,2.86673,0.02303,0.01746,0.01674,9.68719,2.16139,1.63838,1.57065
0.29123,1.24144,2.95736,2.84824,0.00725,0.01727,0.01663,9.71709,0.68437,1.63032,1.57017
0.29213,-0.21726,3.00307,2.82993,-0.00127,0.01753,0.01652,9.74698,-0.12051,1.66572,1.56968
0.29302,3.98941,3.01544,2.81179,0.02329,0.01761,0.01642,9.77688,2.22641,1.68286,1.5692
0.29392,-5.00282,3.09085,2.79382,-0.02921,0.01805,0.01631,9.80677,-2.80908,1.73551,1.56872
0.29482,-1.73758,3.09555,2.77601,-0.01014,0.01807,0.01621,9.83667,-0.98161,1.74876,1.56825
0.29571,2.40478,3.0939,2.75838,0.01404,0.01806,0.0161,9.86657,1.3668,1.75847,1.56777
0.29661,5.00789,3.11903,2.74091,0.02924,0.01821,0.016,9.89646,2.86359,1.78351,1.5673
0.2975,2.62026,3.15281,2.72363,0.0153,0.01841,0.0159,9.92632,1.50736,1.81373,1.56683
0.2984,0.19008,3.20283,2.70649,0.00111,0.0187,0.0158,9.95622,0.11001,1.85361,1.56636
0.29929,3.27927,3.18563,2.68951,0.01915,0.0186,0.0157,9.98611,1.90927,1.85475,1.56589
0.30019,4.98925,3.22179,2.67268,0.02913,0.01881,0.0156,10.01601,2.92227,1.88705,1.56543
0.30109,7.1289,3.25479,2.65601,0.04162,0.019,0.01551,10.04591,4.20046,1.91777,1.56496
0.30198,6.38284,3.2418,2.6395,0.03727,0.01893,0.01541,10.0758,3.78328,1.9215,1.5645
0.30288,3.49215,3.27594,2.62314,0.02039,0.01913,0.01531,10.1057,2.0822,1.95328,1.56405
0.30378,7.0408,3.34659,2.60692,0.04111,0.01954,0.01522,10.13559,4.22295,2.00723,1.56359
0.30467,-1.29533,3.39175,2.59086,-0.00756,0.0198,0.01513,10.16549,-0.78151,2.04633,1.56313
0.30557,7.61281,3.33721,2.57496,0.04445,0.01948,0.01503,10.19535,4.62004,2.02527,1.56268
0.30646,5.60404,3.35169,2.55919,0.03272,0.01957,0.01494,10.22524,3.42093,2.04601,1.56223
0.30736,1.52567,3.42432,2.54356,0.00891,0.01999,0.01485,10.25514,0.93679,2.10259,1.56178
0.30825,-1.38886,3.51437,2.52807,-0.00811,0.02052,0.01476,10.28504,-0.85776,2.17048,1.56134
0.30915,3.08436,3.48052,2.51272,0.01801,0.02032,0.01467,10.31493,1.916,2.16209,1.56089
0.31005,9.04548,3.44406,2.49751,0.05281,0.02011,0.01458,10.34483,5.65164,2.15185,1.56045
0.31094,8.00098,3.48935,2.48243,0.04671,0.02037,0.01449,10.37472,5.02797,2.19277,1.56001
0.31184,6.86653,3.5198,2.46749,0.04009,0.02055,0.01441,10.40462,4.33996,2.22468,1.55956
0.31273,-5.11041,3.51628,2.45268,-0.02984,0.02053,0.01432,10.43451,-3.2486,2.23524,1.55912
0.31363,-0.51386,3.51993,2.43801,-0.003,0.02055,0.01423,10.46437,-0.32853,2.25039,1.55869
0.31452,0.13773,3.57793,2.42346,0.0008,0.02089,0.01415,10.49427,0.08856,2.30056,1.55825
0.31542,8.73865,3.65044,2.40903,0.05102,0.02131,0.01406,10.52417,5.65087,2.36057,1.55781
0.31632,2.84566,3.65647,2.39473,0.01661,0.02135,0.01398,10.55406,1.85063,2.37792,1.55737
0.31721,-1.47526,3.62902,2.38055,-0.00861,0.02119,0.0139,10.58396,-0.96485,2.37346,1.55693
0.31811,4.6425,3.70994,2.36649,0.0271,0.02166,0.01382,10.61385,3.05347,2.44011,1.55649
0.319,4.31125,3.78117,2.35256,0.02517,0.02208,0.01374,10.64375,2.8516,2.50099,1.55606
0.3199,-2.11081,3.83131,2.33874,-0.01232,0.02237,0.01365,10.67364,-1.40401,2.5484,1.55562
0.3208,9.48984,3.78225,2.32506,0.05541,0.02208,0.01357,10.7035,6.34756,2.52987,1.55519
0.32169,-2.18728,3.82633,2.31149,-0.01277,0.02234,0.0135,10.7334,-1.47121,2.57368,1.55476
0.32259,0.6174,3.89661,2.29803,0.0036,0.02275,0.01342,10.7633,0.41759,2.63557,1.55433
0.32348,5.23638,3.96813,2.28468,0.03057,0.02317,0.01334,10.79319,3.56145,2.69887,1.5539
0.32438,-0.3316,3.90838,2.27145,-0.00194,0.02282,0.01326,10.82309,-0.22678,2.67298,1.55347
0.32528,13.92747,3.92929,2.25834,0.08131,0.02294,0.01319,10.85298,9.57782,2.70214,1.55304
0.32617,2.44058,4.02729,2.24534,0.01425,0.02351,0.01311,10.88288,1.68763,2.78482,1.55262
0.32707,4.99196,4.08753,2.23244,0.02915,0.02386,0.01303,10.91277,3.47087,2.84202,1.5522
0.32796,5.89684,4.07482,2.21966,0.03443,0.02379,0.01296,10.94267,4.12251,2.84873,1.55178
0.32886,5.49965,4.06502,2.20701,0.03211,0.02373,0.01289,10.97253,3.86585,2.85741,1.55136
0.32976,-1.48442,4.18304,2.19444,-0.00867,0.02442,0.01281,11.00243,-1.04913,2.95642,1.55095
0.33065,-1.37896,4.26285,2.18199,-0.00805,0.02489,0.01274,11.03232,-0.9799,3.02921,1.55054
0.33155,2.64633,4.21419,2.16964,0.01545,0.0246,0.01267,11.06222,1.89071,3.01089,1.55013
0.33244,10.1514,4.21249,2.15739,0.05927,0.02459,0.0126,11.09211,7.29207,3.02596,1.54972
0.33334,5.71917,4.33522,2.14525,0.03339,0.02531,0.01252,11.12201,4.13044,3.13093,1.54932
0.33424,13.70785,4.42545,2.13321,0.08003,0.02584,0.01245,11.1519,9.95322,3.21331,1.54892
0.33513,-8.17975,4.40805,2.12128,-0.04776,0.02574,0.01238,11.1818,-5.97118,3.21785,1.54852
0.33603,11.17905,4.37182,2.10945,0.06527,0.02552,0.01232,11.21169,8.20434,3.20849,1.54813
0.33692,7.42451,4.52613,2.09773,0.04335,0.02643,0.01225,11.24156,5.47793,3.33946,1.54774
0.33782,1.85196,4.62304,2.0861,0.01081,0.02699,0.01218,11.27145,1.37369,3.42913,1.54736
0.33871,-0.57563,4.58596,2.07456,-0.00336,0.02677,0.01211,11.30135,-0.42924,3.41969,1.54697
0.33961,14.16215,4.59862,2.06313,0.08268,0.02685,0.01205,11.33124,10.61647,3.4473,1.5466
0.34051,-4.76339,4.75227,2.05179,-0.02781,0.02775,0.01198,11.36114,-3.58968,3.5813,1.54622
0.3414,6.20745,4.84684,2.04055,0.03624,0.0283,0.01191,11.39103,4.70258,3.67182,1.54586
0.3423,-2.24008,4.84764,2.0294,-0.01308,0.0283,0.01185,11.42093,-1.70594,3.69173,1.54549
0.34319,5.03916,4.75792,2.01835,0.02942,0.02778,0.01178,11.45082,3.8577,3.6424,1.54513
0.34409,12.91164,4.93089,2.0074,0.07538,0.02879,0.01172,11.48069,9.93604,3.79452,1.54478
0.34498,-0.79464,5.01663,1.99653,-0.00464,0.02929,0.01166,11.51058,-0.61469,3.88063,1.54443
0.34588,3.87125,4.98994,1.98576,0.0226,0.02913,0.01159,11.54048,3.01019,3.88007,1.54408
0.34678,2.31345,4.86235,1.97507,0.01351,0.02839,0.01153,11.57037,1.80822,3.80047,1.54374
0.34767,5.5647,4.9744,1.96448,0.03249,0.02904,0.01147,11.60027,4.37194,3.90817,1.5434
0.34857,4.27573,5.11517,1.95397,0.02496,0.02986,0.01141,11.63016,3.37659,4.0395,1.54307
0.34947,0.84112,5.26671,1.94355,0.00491,0.03075,0.01135,11.66006,0.66766,4.18058,1.54274
0.35036,4.37017,5.06978,1.93322,0.02551,0.0296,0.01129,11.68995,3.48675,4.04493,1.54242
0.35126,7.31367,5.25386,1.92297,0.0427,0.03067,0.01123,11.71985,5.86511,4.21326,1.5421
0.35215,3.39201,5.46412,1.91281,0.0198,0.0319,0.01117,11.74971,2.73406,4.40424,1.54178
0.35305,11.78988,5.624,1.90273,0.06883,0.03284,0.01111,11.77961,9.55141,4.55621,1.54147
0.35394,2.5833,5.38836,1.89273,0.01508,0.03146,0.01105,11.8095,2.10346,4.38749,1.54116
0.35484,0.35948,5.52666,1.8828,0.0021,0.03227,0.01099,11.8394,0.29419,4.52292,1.54085
0.35574,-15.78905,5.81951,1.87296,-0.09218,0.03398,0.01094,11.86929,-12.98679,4.78666,1.54054
0.35663,4.02104,5.94739,1.86319,0.02348,0.03472,0.01088,11.89919,3.32406,4.91651,1.54024
0.35753,-6.50532,5.76188,1.8535,-0.03798,0.03364,0.01082,11.92908,-5.40479,4.78712,1.53994
0.35842,7.67869,5.79447,1.84389,0.04483,0.03383,0.01077,11.95898,6.41168,4.83836,1.53964
0.35932,11.06728,6.18515,1.83435,0.06462,0.03611,0.01071,11.98888,9.2874,5.19043,1.53934
0.36022,18.24483,6.41754,1.82489,0.10652,0.03747,0.01065,12.01874,15.38699,5.4123,1.53904
0.36111,3.42242,6.17143,1.81549,0.01998,0.03603,0.0106,12.04863,2.90071,5.23067,1.53874
0.36201,4.83189,6.147,1.80617,0.02821,0.03589,0.01055,12.07853,4.11568,5.23585,1.53844
0.3629,2.17391,6.67024,1.79691,0.01269,0.03894,0.01049,12.10842,1.86086,5.7097,1.53815
0.3638,2.58156,6.95109,1.78773,0.01507,0.04058,0.01044,12.13832,2.22073,5.97952,1.53785
0.36469,-5.49895,6.74801,1.77861,-0.03211,0.0394,0.01038,12.16821,-4.75368,5.83346,1.53755
0.36559,5.51376,6.62599,1.76956,0.03219,0.03869,0.01033,12.19811,4.78993,5.75615,1.53726
0.36649,0.09518,7.24739,1.76058,0.00056,0.04231,0.01028,12.22801,0.08309,6.32687,1.53696
0.36738,2.30553,7.73784,1.75168,0.01346,0.04518,0.01023,12.25787,2.02254,6.78806,1.53667
0.36828,-1.51144,7.54496,1.74283,-0.00882,0.04405,0.01018,12.28776,-1.33239,6.65118,1.53637
0.36917,-1.23516,7.29955,1.73404,-0.00721,0.04262,0.01012,12.31766,-1.09415,6.4662,1.53608
0.37007,-6.00425,8.22697,1.72532,-0.03506,0.04803,0.01007,12.34755,-5.34462,7.32315,1.53578
0.37097,16.08784,8.61829,1.71667,0.09393,0.05032,0.01002,12.37745,14.38985,7.70867,1.53548
0.37186,2.04579,8.64333,1.70808,0.01194,0.05046,0.00997,12.40735,1.83872,7.76846,1.53519
0.37276,6.52149,8.12665,1.69954,0.03808,0.04745,0.00992,12.43724,5.88967,7.33932,1.53489
0.37365,1.68755,9.19066,1.69108,0.00985,0.05366,0.00987,12.46714,1.5314,8.3402,1.53459
0.37455,13.31584,10.36733,1.68267,0.07774,0.06053,0.00982,12.49703,12.14167,9.45316,1.53429
0.37544,-9.71531,10.14884,1.67433,-0.05672,0.05925,0.00978,12.52689,-8.90102,9.29821,1.53399
0.37634,9.66156,9.44124,1.66603,0.05641,0.05512,0.00973,12.55679,8.89408,8.69126,1.53369
0.37724,13.03038,11.06869,1.6578,0.07608,0.06462,0.00968,12.58668,12.05247,10.238,1.53339
0.37813,16.56418,13.2511,1.64962,0.09671,0.07737,0.00963,12.61658,15.39393,12.31492,1.53308
0.37903,4.67068,13.83977,1.6415,0.02727,0.0808,0.00958,12.64648,4.3613,12.92302,1.53276
0.37993,16.92551,11.77828,1.63343,0.09882,0.06877,0.00954,12.67637,15.87917,11.05015,1.53245
0.38082,18.72812,15.37613,1.62541,0.10934,0.08977,0.00949,12.70627,17.65331,14.4937,1.53212
0.38172,19.10189,20.29097,1.61743,0.11153,0.11847,0.00944,12.73616,18.09046,19.21658,1.53179
0.38261,11.01069,23.32634,1.60951,0.06429,0.13619,0.0094,12.76606,10.4767,22.19506,1.53145
0.38351,64.52036,20.83202,1.60165,0.3767,0.12163,0.00935,12.79592,61.67881,19.91456,1.53111