File: 2025/starling_2025/figures/experimental_comparison/saxs_scattering/experiment/dss1/mff_out.csv
#File Plotted Below: dss1_clean.dat,,,,,,,,,,
,,,,,,,,,,
    #Fit from 0.01-0.15 with polymer MFF,,,,,,,,,,
#Initial search parameter for I0 = 0.0268958,,,,,,,,,,
#Initial search parameter for Rg = 30,,,,,,,,,,
#Initial search parameter for nu = 0.499881,,,,,,,,,,
#BestFit for I0 = 0.02752 +- 0.00004,,,,,,,,,,
#BestFit for I(0)/I0 = 1.00000 +- 0.00130,,,,,,,,,,
#BestFit for Rg = 26.35988 +- 0.04097,,,,,,,,,,
#BestFit for nu = 0.56748 +- 0.00500,,,,,,,,,,
#BestFit reduced chisquared = 0.05663,,,,,,,,,,
#-------------,,,,,,,,,,
#-------------,,,,,,,,,,
,,,,,,,,,,
    #q,I(q),Error,fit,I(q)/I0,Error/I0,fit/I0,qRg,((qRg)^2)I(q)/I0,((qRg)^2)*Error/I0,((qRg)^2)*fit/I0
0.0045,0.03004,0.01458,0.02742,1.09161,0.52998,0.99634,0.11862,0.01536,0.00746,0.01402
0.00515,0.02651,0.00947,0.02738,0.96326,0.34396,0.99489,0.13586,0.01778,0.00635,0.01836
0.00581,0.02583,0.00719,0.02733,0.93877,0.26132,0.99321,0.1531,0.022,0.00613,0.02328
0.00646,0.02386,0.00557,0.02728,0.86722,0.20229,0.99133,0.17034,0.02516,0.00587,0.02876
0.00712,0.02852,0.00473,0.02722,1.03628,0.17192,0.98922,0.18758,0.03646,0.00605,0.03481
0.00777,0.02883,0.00408,0.02716,1.04766,0.14838,0.98691,0.20482,0.04395,0.00622,0.0414
0.00842,0.02756,0.00361,0.02709,1.0016,0.13127,0.9844,0.22206,0.04939,0.00647,0.04854
0.00908,0.02902,0.0033,0.02701,1.05454,0.12005,0.98168,0.23929,0.06038,0.00687,0.05621
0.00973,0.02775,0.00302,0.02693,1.00837,0.1096,0.97877,0.25653,0.06636,0.00721,0.06441
0.01039,0.02756,0.00278,0.02685,1.00146,0.10099,0.97567,0.27377,0.07506,0.00757,0.07313
0.01104,0.02708,0.00256,0.02676,0.98411,0.09315,0.97238,0.29101,0.08334,0.00789,0.08235
0.01169,0.02556,0.00239,0.02666,0.92901,0.0869,0.9689,0.30825,0.08827,0.00826,0.09206
0.01235,0.02593,0.00234,0.02656,0.94213,0.085,0.96525,0.32549,0.09981,0.00901,0.10226
0.013,0.02654,0.00223,0.02646,0.96445,0.08096,0.96142,0.34273,0.11329,0.00951,0.11293
0.01366,0.02686,0.00209,0.02635,0.97605,0.07606,0.95742,0.35997,0.12647,0.00986,0.12406
0.01431,0.02622,0.00205,0.02623,0.95273,0.07436,0.95325,0.37721,0.13556,0.01058,0.13563
0.01496,0.02544,0.00199,0.02611,0.92457,0.0722,0.94892,0.39445,0.14385,0.01123,0.14764
0.01562,0.02605,0.00193,0.02599,0.94671,0.0702,0.94443,0.41169,0.16045,0.0119,0.16007
0.01627,0.02578,0.00188,0.02586,0.937,0.06846,0.93979,0.42893,0.17239,0.01259,0.1729
0.01693,0.02539,0.00182,0.02573,0.9227,0.06614,0.935,0.44617,0.18368,0.01317,0.18612
0.01758,0.02527,0.00178,0.02559,0.9183,0.06468,0.93006,0.4634,0.1972,0.01389,0.19972
0.01823,0.02515,0.00175,0.02545,0.91383,0.06342,0.92498,0.48064,0.21111,0.01465,0.21369
0.01889,0.02558,0.00169,0.02531,0.92972,0.06125,0.91976,0.49788,0.23047,0.01518,0.228
0.01954,0.02488,0.00166,0.02516,0.904,0.06042,0.91441,0.51512,0.23988,0.01603,0.24264
0.0202,0.02505,0.00162,0.02501,0.91012,0.05902,0.90893,0.53236,0.25793,0.01673,0.2576
0.02085,0.02536,0.00159,0.02486,0.92174,0.05775,0.90333,0.5496,0.27842,0.01744,0.27286
0.0215,0.02463,0.00158,0.0247,0.89516,0.05728,0.8976,0.56684,0.28762,0.0184,0.28841
0.02216,0.02523,0.00154,0.02454,0.91686,0.05582,0.89176,0.58408,0.31279,0.01904,0.30422
0.02281,0.02441,0.00151,0.02438,0.887,0.05501,0.8858,0.60132,0.32073,0.01989,0.32029
0.02347,0.02415,0.0015,0.02421,0.87748,0.05434,0.87974,0.61856,0.33574,0.02079,0.3366
0.02412,0.02425,0.00147,0.02404,0.88121,0.05349,0.87357,0.6358,0.35622,0.02162,0.35313
0.02477,0.02413,0.00145,0.02387,0.8767,0.05284,0.8673,0.65304,0.37387,0.02253,0.36987
0.02543,0.02343,0.00144,0.02369,0.85153,0.05225,0.86094,0.67028,0.38257,0.02347,0.38679
0.02608,0.02403,0.00141,0.02351,0.87308,0.05137,0.85449,0.68752,0.41269,0.02428,0.4039
0.02674,0.02311,0.0014,0.02333,0.83977,0.0508,0.84794,0.70475,0.4171,0.02523,0.42116
0.02739,0.02254,0.00137,0.02315,0.81918,0.04962,0.84132,0.72199,0.42702,0.02587,0.43856
0.02804,0.02334,0.00135,0.02297,0.84826,0.04892,0.83461,0.73923,0.46354,0.02674,0.45609
0.0287,0.02287,0.00133,0.02278,0.83124,0.04822,0.82784,0.75647,0.47568,0.02759,0.47373
0.02935,0.02258,0.00131,0.02259,0.82049,0.0477,0.82099,0.77371,0.49117,0.02855,0.49147
0.03001,0.02289,0.0013,0.0224,0.8318,0.0471,0.81407,0.79095,0.52038,0.02946,0.50928
0.03066,0.02199,0.00129,0.02221,0.79907,0.04678,0.80709,0.80819,0.52193,0.03056,0.52717
0.03131,0.02229,0.00128,0.02202,0.80987,0.04637,0.80006,0.82543,0.55179,0.03159,0.5451
0.03197,0.02172,0.00127,0.02182,0.78915,0.0461,0.79297,0.84267,0.56037,0.03273,0.56308
0.03262,0.02203,0.00125,0.02162,0.80052,0.0455,0.78583,0.85991,0.59194,0.03365,0.58107
0.03328,0.02161,0.00125,0.02143,0.78515,0.0454,0.77864,0.87715,0.60408,0.03493,0.59908
0.03393,0.02125,0.00126,0.02123,0.77206,0.04571,0.77141,0.89439,0.61759,0.03657,0.61707
0.03458,0.02136,0.00126,0.02103,0.77615,0.04585,0.76415,0.91163,0.64503,0.03811,0.63505
0.03524,0.02051,0.00126,0.02083,0.74536,0.04564,0.75685,0.92886,0.64309,0.03937,0.653
0.03589,0.02101,0.00128,0.02063,0.76351,0.04646,0.74953,0.9461,0.68343,0.04159,0.67091
0.03655,0.02083,0.0013,0.02042,0.75678,0.04716,0.74218,0.96334,0.70232,0.04377,0.68876
0.0372,0.02006,0.0013,0.02022,0.72887,0.04741,0.73481,0.98058,0.70084,0.04559,0.70655
0.03785,0.02011,0.00131,0.02002,0.73089,0.04749,0.72742,0.99782,0.72771,0.04729,0.72425
0.03851,0.02011,0.00128,0.01981,0.73086,0.04645,0.72002,1.01506,0.75304,0.04786,0.74187
0.03916,0.01949,0.00126,0.01961,0.70838,0.04569,0.71261,1.0323,0.75488,0.04869,0.75939
0.03982,0.01956,0.00124,0.01941,0.7109,0.04518,0.7052,1.04954,0.78308,0.04977,0.7768
0.04047,0.01886,0.00124,0.0192,0.68552,0.04508,0.69778,1.06678,0.78013,0.0513,0.79408
0.04112,0.01937,0.00123,0.019,0.70377,0.04469,0.69036,1.08402,0.827,0.05252,0.81124
0.04178,0.0187,0.00121,0.01879,0.67971,0.04409,0.68294,1.10126,0.82433,0.05347,0.82825
0.04243,0.01891,0.00122,0.01859,0.68703,0.04418,0.67553,1.1185,0.8595,0.05527,0.84511
0.04309,0.0185,0.0012,0.01839,0.67239,0.04369,0.66813,1.13574,0.86731,0.05636,0.86181
0.04374,0.01807,0.0012,0.01818,0.65663,0.04349,0.66073,1.15298,0.87289,0.05782,0.87834
0.04439,0.01757,0.00119,0.01798,0.63859,0.0434,0.65335,1.17021,0.87449,0.05943,0.8947
0.04505,0.01795,0.00118,0.01778,0.65247,0.04306,0.64598,1.18745,0.92001,0.06071,0.91086
0.0457,0.01778,0.00118,0.01757,0.64615,0.04273,0.63863,1.20469,0.93775,0.06202,0.92684
0.04636,0.01767,0.0012,0.01737,0.64215,0.0437,0.6313,1.22193,0.9588,0.06525,0.94261
0.04701,0.0173,0.00122,0.01717,0.62857,0.04433,0.624,1.23917,0.96519,0.06807,0.95818
0.04766,0.01686,0.00124,0.01697,0.61285,0.04495,0.61672,1.25641,0.96742,0.07096,0.97354
0.04832,0.01677,0.00124,0.01677,0.60931,0.04502,0.60948,1.27365,0.98841,0.07303,0.98868
0.04897,0.01626,0.00124,0.01657,0.59085,0.04497,0.60226,1.29089,0.98459,0.07493,1.0036
0.04963,0.01589,0.00125,0.01638,0.57739,0.04527,0.59508,1.30813,0.98803,0.07747,1.0183
0.05028,0.01616,0.00125,0.01618,0.58728,0.04537,0.58793,1.32537,1.03161,0.07969,1.03276
0.05093,0.01655,0.00126,0.01598,0.6014,0.04574,0.58083,1.34261,1.08409,0.08244,1.047
0.05159,0.01578,0.00127,0.01579,0.57346,0.04606,0.57377,1.35985,1.06044,0.08517,1.061
0.05224,0.01574,0.00126,0.0156,0.57206,0.04594,0.56675,1.37709,1.08484,0.08711,1.07477
0.0529,0.01583,0.00127,0.0154,0.57524,0.04622,0.55978,1.39432,1.11835,0.08987,1.0883
0.05355,0.01513,0.00127,0.01521,0.54974,0.04604,0.55287,1.41156,1.09536,0.09174,1.1016
0.0542,0.0149,0.00127,0.01503,0.5415,0.04632,0.54601,1.4288,1.10547,0.09456,1.11466
0.05486,0.01481,0.00128,0.01484,0.53808,0.04637,0.5392,1.44604,1.12514,0.09696,1.12749
0.05551,0.01524,0.00128,0.01465,0.55396,0.04644,0.53245,1.46328,1.18613,0.09943,1.14008
0.05617,0.01453,0.00128,0.01447,0.52811,0.04648,0.52577,1.48052,1.1576,0.10188,1.15245
0.05682,0.01436,0.00128,0.01429,0.52171,0.04649,0.51915,1.49776,1.17034,0.10429,1.1646
0.05747,0.01371,0.00127,0.01411,0.4982,0.04618,0.51259,1.515,1.14347,0.10598,1.17652
0.05813,0.01327,0.00126,0.01393,0.48212,0.0459,0.50611,1.53224,1.13189,0.10777,1.18822
0.05878,0.01373,0.00126,0.01375,0.49898,0.04577,0.49969,1.54948,1.198,0.10989,1.1997
0.05944,0.01362,0.00125,0.01358,0.49483,0.04526,0.49334,1.56672,1.21461,0.1111,1.21096
0.06009,0.0132,0.00124,0.0134,0.47983,0.04507,0.48706,1.58396,1.20385,0.11309,1.222
0.06074,0.01337,0.00124,0.01323,0.4858,0.04513,0.48085,1.6012,1.24552,0.11572,1.23282
0.0614,0.01318,0.00124,0.01306,0.47908,0.04497,0.47471,1.61844,1.25488,0.11779,1.24341
0.06205,0.01302,0.00124,0.0129,0.473,0.04488,0.46863,1.63567,1.26549,0.12008,1.25379
0.06271,0.01291,0.00124,0.01273,0.46912,0.04515,0.46262,1.65291,1.2817,0.12337,1.26394
0.06336,0.01277,0.00123,0.01257,0.46396,0.04459,0.45668,1.67015,1.29417,0.12439,1.27387
0.06401,0.01337,0.00123,0.01241,0.48589,0.04485,0.45081,1.68739,1.38348,0.1277,1.28359
0.06467,0.01221,0.00122,0.01225,0.44384,0.04452,0.44501,1.70463,1.28968,0.12935,1.29309
0.06532,0.01205,0.00122,0.01209,0.43792,0.04425,0.43927,1.72187,1.29836,0.1312,1.30237
0.06598,0.01216,0.00121,0.01193,0.44187,0.04405,0.43361,1.73911,1.33643,0.13322,1.31145
0.06663,0.01175,0.0012,0.01178,0.42712,0.04362,0.42801,1.75635,1.31756,0.13457,1.32031
0.06728,0.01142,0.0012,0.01163,0.41484,0.04375,0.42248,1.77359,1.30494,0.13762,1.32896
0.06794,0.01169,0.0012,0.01148,0.42494,0.04356,0.41702,1.79083,1.36281,0.1397,1.33741
0.06859,0.01181,0.00119,0.01133,0.42911,0.04335,0.41163,1.80807,1.40281,0.14173,1.34565
0.06925,0.01071,0.00119,0.01118,0.3893,0.04329,0.4063,1.82531,1.29705,0.14424,1.3537
0.0699,0.01122,0.00119,0.01104,0.40765,0.04323,0.40105,1.84255,1.38395,0.14676,1.36155
0.07055,0.01098,0.00119,0.01089,0.39903,0.04314,0.39586,1.85978,1.38018,0.14922,1.36921
0.07121,0.01093,0.0012,0.01075,0.39701,0.04343,0.39075,1.87702,1.39874,0.15302,1.37669
0.07186,0.01094,0.00117,0.01061,0.3977,0.04257,0.3857,1.89426,1.42705,0.15276,1.38398
0.07252,0.0105,0.00117,0.01048,0.38138,0.04262,0.38072,1.9115,1.3935,0.15574,1.39109
0.07317,0.00976,0.00117,0.01034,0.35458,0.04257,0.37581,1.92874,1.31907,0.15834,1.39802
0.07382,0.01045,0.00116,0.01021,0.3799,0.04224,0.37097,1.94598,1.43861,0.15995,1.40479
0.07448,0.01002,0.00116,0.01008,0.36418,0.04202,0.36619,1.96322,1.40363,0.16196,1.4114
0.07513,0.00983,0.00115,0.00995,0.35718,0.04192,0.36149,1.98046,1.40093,0.1644,1.41785
0.07579,0.01003,0.00115,0.00982,0.36434,0.04172,0.35686,1.9977,1.454,0.16651,1.42414
0.07644,0.00926,0.00115,0.00969,0.33641,0.0417,0.35229,2.01494,1.36581,0.16932,1.43029
0.07709,0.00969,0.00115,0.00957,0.35211,0.04173,0.34779,2.03218,1.45413,0.17234,1.4363
0.07775,0.00972,0.00115,0.00945,0.35319,0.04169,0.34336,2.04942,1.48343,0.17512,1.44216
0.0784,0.00893,0.00114,0.00933,0.32447,0.04156,0.339,2.06666,1.38584,0.1775,1.4479
0.07906,0.00856,0.00114,0.00921,0.31092,0.04136,0.3347,2.0839,1.3502,0.1796,1.45349
0.07971,0.00922,0.00114,0.00909,0.33513,0.04129,0.33047,2.10113,1.47954,0.18228,1.45896
0.08036,0.00907,0.00113,0.00898,0.32951,0.04117,0.32631,2.11837,1.47867,0.18477,1.4643
0.08102,0.00871,0.00113,0.00887,0.31664,0.04091,0.3222,2.13561,1.44415,0.18661,1.46952
0.08167,0.00847,0.00112,0.00876,0.30779,0.04085,0.31816,2.15285,1.42653,0.18934,1.47461
0.08233,0.00865,0.00112,0.00865,0.31429,0.04083,0.31418,2.17009,1.48011,0.19229,1.47959
0.08298,0.00843,0.00111,0.00854,0.30631,0.04043,0.31027,2.18733,1.46551,0.19342,1.48445
0.08363,0.00899,0.00111,0.00843,0.32669,0.04045,0.30641,2.20457,1.58776,0.19657,1.4892
0.08429,0.00817,0.00111,0.00833,0.29679,0.04039,0.30261,2.22181,1.46506,0.1994,1.49383
0.08494,0.00803,0.00111,0.00822,0.29173,0.04033,0.29888,2.23905,1.46256,0.20221,1.49837
0.0856,0.00805,0.00111,0.00812,0.29253,0.04044,0.2952,2.25629,1.48922,0.20586,1.5028
0.08625,0.00823,0.0011,0.00802,0.29925,0.04005,0.29157,2.27353,1.54679,0.20703,1.50712
0.0869,0.0078,0.0011,0.00793,0.28361,0.04015,0.28801,2.29077,1.4883,0.21068,1.51135
0.08756,0.00781,0.0011,0.00783,0.28369,0.03984,0.2845,2.30801,1.5112,0.21225,1.51549
0.08821,0.00797,0.0011,0.00773,0.28945,0.03989,0.28104,2.32524,1.56498,0.21569,1.51953
0.08887,0.00725,0.00109,0.00764,0.2635,0.03961,0.27764,2.34248,1.4459,0.21736,1.52349
0.08952,0.00789,0.00109,0.00755,0.28674,0.03954,0.27429,2.35972,1.59668,0.22015,1.52735
0.09017,0.0071,0.00108,0.00746,0.25797,0.0393,0.271,2.37696,1.45752,0.22203,1.53113
0.09083,0.00779,0.00108,0.00737,0.28314,0.03933,0.26776,2.3942,1.62302,0.22545,1.53483
0.09148,0.00761,0.00108,0.00728,0.27669,0.03927,0.26456,2.41144,1.60894,0.22836,1.53845
0.09214,0.00681,0.00113,0.00719,0.24757,0.04121,0.26142,2.42868,1.46027,0.2431,1.54199
0.09279,0.00749,0.00116,0.00711,0.27215,0.04201,0.25833,2.44592,1.62816,0.25131,1.54545
0.09344,0.00687,0.00111,0.00703,0.24973,0.04037,0.25528,2.46316,1.51512,0.24492,1.54885
0.0941,0.00676,0.0011,0.00694,0.24551,0.0399,0.25229,2.4804,1.51044,0.24549,1.55217
0.09475,0.00644,0.00109,0.00686,0.23414,0.03974,0.24934,2.49764,1.46059,0.24793,1.55542
0.09541,0.00667,0.00109,0.00678,0.24246,0.0396,0.24643,2.51488,1.53344,0.25044,1.5586
0.09606,0.0067,0.00109,0.0067,0.24334,0.03944,0.24358,2.53212,1.56018,0.2529,1.56172
0.09671,0.00686,0.00108,0.00663,0.2494,0.03925,0.24076,2.54936,1.62093,0.2551,1.56478
0.09737,0.00673,0.00107,0.00655,0.24443,0.03902,0.238,2.56659,1.61016,0.25704,1.56777
0.09802,0.00615,0.00106,0.00647,0.2236,0.03865,0.23527,2.58383,1.49282,0.25804,1.57071
0.09868,0.00654,0.00105,0.0064,0.23772,0.03829,0.23259,2.60107,1.60828,0.25904,1.57359
0.09933,0.00614,0.00105,0.00633,0.22327,0.03808,0.22995,2.61831,1.53061,0.26105,1.57642
0.09998,0.00616,0.00105,0.00626,0.22402,0.03812,0.22735,2.63555,1.5561,0.26478,1.5792
0.10064,0.00663,0.00105,0.00619,0.24096,0.03812,0.22479,2.65279,1.6957,0.26827,1.58193
0.10129,0.0058,0.00105,0.00612,0.21068,0.0382,0.22227,2.67003,1.50198,0.27235,1.58461
0.10195,0.00603,0.00105,0.00605,0.21917,0.03809,0.2198,2.68727,1.58274,0.27509,1.58725
0.1026,0.00566,0.00104,0.00598,0.20558,0.03796,0.21736,2.70451,1.50369,0.27769,1.58984
0.10325,0.00577,0.00104,0.00592,0.20953,0.03788,0.21496,2.72175,1.5522,0.28064,1.59239
0.10391,0.00579,0.00104,0.00585,0.21038,0.03768,0.2126,2.73899,1.57832,0.28267,1.5949
0.10456,0.00544,0.00103,0.00579,0.19773,0.03755,0.21027,2.75623,1.50214,0.28523,1.59737
0.10522,0.00565,0.00103,0.00572,0.20541,0.03749,0.20798,2.77347,1.58,0.28838,1.59981
0.10587,0.00547,0.00103,0.00566,0.1989,0.03737,0.20573,2.79071,1.54902,0.29107,1.6022
0.10652,0.00528,0.00102,0.0056,0.19174,0.0372,0.20351,2.80794,1.51177,0.2933,1.60457
0.10718,0.00523,0.00106,0.00554,0.19015,0.03846,0.20132,2.82518,1.51771,0.30697,1.6069
0.10783,0.00566,0.00108,0.00548,0.20563,0.03934,0.19917,2.84242,1.66138,0.31781,1.60919
0.10849,0.00536,0.00111,0.00542,0.19485,0.04017,0.19706,2.85966,1.59343,0.32846,1.61145
0.10914,0.00525,0.00112,0.00537,0.19093,0.04073,0.19497,2.8769,1.58022,0.3371,1.61368
0.10979,0.00598,0.00114,0.00531,0.21742,0.04126,0.19292,2.89414,1.82109,0.34557,1.61588
0.11045,0.00537,0.00115,0.00525,0.19508,0.04192,0.19089,2.91138,1.6535,0.35533,1.61805
0.1111,0.00507,0.00116,0.0052,0.18419,0.04229,0.1889,2.92862,1.57972,0.36275,1.62018
0.11176,0.00533,0.00115,0.00514,0.19356,0.04174,0.18694,2.94586,1.67971,0.36218,1.62228
0.11241,0.00496,0.00111,0.00509,0.18007,0.04046,0.18501,2.9631,1.58104,0.3552,1.62435
0.11306,0.00506,0.00109,0.00504,0.18385,0.03956,0.1831,2.98034,1.63307,0.35141,1.62639
0.11372,0.00505,0.00108,0.00499,0.18367,0.03919,0.18123,2.99758,1.65037,0.35215,1.6284
0.11437,0.00505,0.00107,0.00494,0.18345,0.03884,0.17938,3.01482,1.66736,0.35301,1.63037
0.11503,0.0049,0.00106,0.00489,0.17792,0.03837,0.17755,3.03205,1.63571,0.35278,1.63231
0.11568,0.0045,0.00105,0.00484,0.16366,0.03823,0.17576,3.04929,1.52173,0.35543,1.63422
0.11633,0.00473,0.00104,0.00479,0.17198,0.03794,0.17399,3.06653,1.61722,0.35674,1.63611
0.11699,0.0045,0.00104,0.00474,0.16368,0.03761,0.17224,3.08377,1.55653,0.35769,1.63796
0.11764,0.00444,0.00103,0.00469,0.1612,0.03754,0.17052,3.10101,1.55018,0.36097,1.63979
0.1183,0.00494,0.00102,0.00465,0.17957,0.03722,0.16883,3.11825,1.74604,0.36195,1.64159
0.11895,0.0048,0.00102,0.0046,0.17425,0.03694,0.16716,3.13549,1.71313,0.36318,1.64337
0.1196,0.00436,0.00101,0.00455,0.15839,0.0368,0.16551,3.15273,1.57439,0.36575,1.64512
0.12026,0.00421,0.001,0.00451,0.15298,0.03646,0.16389,3.16997,1.53727,0.36633,1.64686
0.12091,0.00435,0.00099,0.00447,0.15818,0.03616,0.16229,3.18721,1.60683,0.36728,1.64857
0.12157,0.00416,0.00099,0.00442,0.15111,0.03606,0.16071,3.20445,1.55169,0.3703,1.65027
0.12222,0.0041,0.00099,0.00438,0.14882,0.03587,0.15916,3.22169,1.54463,0.37226,1.65195
0.12287,0.00436,0.00098,0.00434,0.15853,0.03576,0.15763,3.23893,1.66313,0.37519,1.65361
0.12353,0.00462,0.00098,0.0043,0.16802,0.03569,0.15612,3.25616,1.78146,0.37842,1.65525
0.12418,0.00425,0.00098,0.00426,0.15459,0.03563,0.15463,3.2734,1.65641,0.38181,1.65688
0.12484,0.00418,0.00098,0.00421,0.15196,0.03552,0.15316,3.29064,1.6455,0.38465,1.65849
0.12549,0.00371,0.00098,0.00417,0.13498,0.03555,0.15172,3.30788,1.47696,0.38896,1.66008
0.12614,0.00419,0.00097,0.00414,0.15237,0.03542,0.15029,3.32512,1.68462,0.39162,1.66166
0.1268,0.00429,0.00098,0.0041,0.15589,0.03546,0.14888,3.34236,1.74148,0.39612,1.66323
0.12745,0.00429,0.00097,0.00406,0.15584,0.03526,0.1475,3.3596,1.75895,0.39803,1.66478
0.12811,0.00365,0.00097,0.00402,0.13272,0.03515,0.14613,3.37684,1.5134,0.40082,1.66631
0.12876,0.00418,0.00096,0.00398,0.152,0.03504,0.14478,3.39408,1.75095,0.40367,1.66784
0.12941,0.00399,0.00096,0.00395,0.14485,0.03498,0.14345,3.41132,1.68563,0.40709,1.66934
0.13007,0.00401,0.00096,0.00391,0.14588,0.03485,0.14214,3.42856,1.71478,0.40966,1.67083
0.13072,0.00376,0.00096,0.00388,0.13651,0.03478,0.14084,3.4458,1.62083,0.41295,1.67231
0.13138,0.00393,0.00095,0.00384,0.14283,0.03464,0.13957,3.46304,1.71291,0.41541,1.67377
0.13203,0.00377,0.00095,0.00381,0.13682,0.03468,0.13831,3.48028,1.65723,0.42009,1.67521
0.13268,0.00419,0.00095,0.00377,0.15238,0.03449,0.13706,3.49751,1.864,0.42189,1.67664
0.13334,0.00346,0.00095,0.00374,0.12581,0.03455,0.13584,3.51475,1.55413,0.42683,1.67804
0.13399,0.00376,0.00095,0.0037,0.13647,0.03434,0.13462,3.53199,1.70244,0.4284,1.67943
0.13465,0.00366,0.00095,0.00367,0.13282,0.03436,0.13343,3.54923,1.67315,0.43278,1.68081
0.1353,0.00356,0.00095,0.00364,0.12937,0.03435,0.13225,3.56647,1.64558,0.43692,1.68216
0.13595,0.00354,0.00094,0.00361,0.12877,0.03426,0.13108,3.58371,1.65381,0.44002,1.6835
0.13661,0.00343,0.00094,0.00358,0.12453,0.03426,0.12993,3.60095,1.61482,0.44429,1.68483
0.13726,0.00375,0.00094,0.00354,0.13635,0.03415,0.1288,3.61819,1.785,0.44705,1.68615
0.13792,0.00326,0.00094,0.00351,0.11848,0.03398,0.12768,3.63543,1.56591,0.44909,1.68745
0.13857,0.00346,0.00094,0.00348,0.12587,0.03402,0.12657,3.65267,1.67939,0.45392,1.68874
0.13922,0.00357,0.00093,0.00345,0.12979,0.0338,0.12548,3.66991,1.74806,0.45522,1.69002
0.13988,0.00377,0.00093,0.00342,0.13704,0.03372,0.1244,3.68715,1.86307,0.45845,1.69128
0.14053,0.00352,0.00093,0.00339,0.12794,0.03367,0.12334,3.70439,1.75569,0.46206,1.69254
0.14119,0.00364,0.00092,0.00337,0.13236,0.03351,0.12229,3.72163,1.83321,0.46415,1.69379
0.14184,0.00335,0.00092,0.00334,0.12173,0.03343,0.12125,3.73886,1.70162,0.46739,1.69503
0.14249,0.0031,0.00092,0.00331,0.11263,0.03347,0.12023,3.7561,1.58901,0.47214,1.69626
0.14315,0.00313,0.00092,0.00328,0.11362,0.03351,0.11922,3.77334,1.61767,0.47714,1.69748
0.1438,0.0032,0.00092,0.00325,0.11641,0.03336,0.11822,3.79058,1.67265,0.47937,1.69869
0.14446,0.00302,0.00092,0.00323,0.10961,0.03335,0.11724,3.80782,1.58929,0.48357,1.6999
0.14511,0.00325,0.00092,0.0032,0.11796,0.03327,0.11627,3.82506,1.72588,0.48674,1.70109
0.14576,0.00312,0.00092,0.00317,0.11327,0.03334,0.11531,3.8423,1.67222,0.49218,1.70228
0.14642,0.00319,0.00091,0.00315,0.11589,0.03319,0.11436,3.85954,1.72633,0.49438,1.70346
0.14707,0.00332,0.00091,0.00312,0.12062,0.03309,0.11342,3.87678,1.81289,0.49726,1.70463
0.14773,0.00287,0.00091,0.0031,0.10422,0.03297,0.11249,3.89402,1.58035,0.49992,1.7058
0.14838,0.00314,0.00091,0.00307,0.11413,0.03303,0.11158,3.91126,1.74588,0.5053,1.70695
0.14903,0.00326,0.0009,0.00305,0.11851,0.03272,0.11068,3.9285,1.82897,0.5049,1.7081
0.14969,0.00294,0.0009,0.00302,0.10669,0.03265,0.10979,3.94574,1.66099,0.50836,1.70923
0.15034,0.00296,0.0009,0.003,0.10761,0.03278,0.1089,3.96297,1.69001,0.51484,1.71036
0.151,0.00298,0.0009,0.00297,0.10832,0.03269,0.10803,3.98021,1.71605,0.51783,1.71148
0.15165,0.00305,0.0009,0.00295,0.11083,0.03275,0.10717,3.99745,1.77102,0.52333,1.71258
0.1523,0.00305,0.0009,0.00293,0.11086,0.03271,0.10632,4.01469,1.78687,0.52726,1.71367
0.15296,0.00297,0.0009,0.0029,0.10792,0.03264,0.10548,4.03193,1.75436,0.53058,1.71476
0.15361,0.00296,0.0009,0.00288,0.10741,0.03257,0.10465,4.04917,1.76113,0.53402,1.71583
0.15427,0.0026,0.0009,0.00286,0.0945,0.03258,0.10383,4.06641,1.56255,0.53881,1.71689
0.15492,0.00303,0.00089,0.00283,0.11012,0.03243,0.10302,4.08365,1.83639,0.54084,1.71794
0.15557,0.0028,0.00089,0.00281,0.10182,0.03235,0.10222,4.10089,1.71228,0.54404,1.71898
0.15623,0.00296,0.00089,0.00279,0.10751,0.03236,0.10142,4.11813,1.82328,0.54882,1.72001
0.15688,0.00299,0.00088,0.00277,0.10871,0.03212,0.10064,4.13537,1.85901,0.54927,1.72104
0.15754,0.0027,0.00089,0.00275,0.09815,0.03218,0.09986,4.15261,1.69247,0.55499,1.72206
0.15819,0.00284,0.00088,0.00273,0.10321,0.03207,0.0991,4.16985,1.79452,0.55769,1.72307
0.15884,0.0026,0.00088,0.00271,0.09464,0.03202,0.09834,4.18709,1.65918,0.5613,1.72407
0.1595,0.0026,0.00088,0.00269,0.09437,0.03203,0.09759,4.20432,1.6682,0.5662,1.72507
0.16015,0.00267,0.00088,0.00267,0.09689,0.03193,0.09685,4.22156,1.72682,0.56903,1.72606
0.16081,0.00261,0.00088,0.00265,0.09474,0.03204,0.09612,4.2388,1.70215,0.57569,1.72704
0.16146,0.00275,0.00088,0.00263,0.1,0.03186,0.0954,4.25604,1.81141,0.57703,1.72802
0.16211,0.0027,0.00088,0.00261,0.09808,0.03183,0.09468,4.27328,1.79096,0.58125,1.72899
0.16277,0.00287,0.00087,0.00259,0.10435,0.03174,0.09398,4.29052,1.92099,0.58433,1.72996
0.16342,0.00275,0.00087,0.00257,0.09994,0.03168,0.09328,4.30776,1.85458,0.58783,1.73092
0.16408,0.00286,0.00087,0.00255,0.10393,0.03169,0.09259,4.325,1.94413,0.59269,1.73188
0.16473,0.00295,0.00087,0.00253,0.10734,0.03157,0.0919,4.34224,2.02395,0.59518,1.73283
0.16538,0.00241,0.00086,0.00251,0.08755,0.0314,0.09123,4.35948,1.6639,0.59671,1.73377
0.16604,0.00231,0.00086,0.00249,0.08385,0.03141,0.09056,4.37672,1.60612,0.60172,1.73471
0.16669,0.00268,0.00086,0.00247,0.09722,0.03124,0.0899,4.39396,1.87705,0.60309,1.73564
0.16735,0.00249,0.00086,0.00246,0.09046,0.03129,0.08924,4.4112,1.76018,0.60894,1.73657
0.168,0.00218,0.00086,0.00244,0.07905,0.03126,0.0886,4.42843,1.55023,0.61312,1.73749
0.16865,0.00219,0.00086,0.00242,0.07949,0.03133,0.08796,4.44567,1.57097,0.61914,1.73841
0.16931,0.00236,0.00086,0.0024,0.08571,0.03124,0.08733,4.46291,1.70716,0.62217,1.73932
0.16996,0.00247,0.00086,0.00239,0.08966,0.03111,0.0867,4.48015,1.79962,0.62442,1.74022
0.17062,0.00209,0.00086,0.00237,0.07595,0.03113,0.08608,4.49739,1.53615,0.62971,1.74111
0.17127,0.00244,0.00085,0.00235,0.08877,0.03103,0.08547,4.51463,1.80927,0.63242,1.742
0.17192,0.00267,0.00085,0.00234,0.097,0.03106,0.08486,4.53187,1.99222,0.63789,1.74287
0.17258,0.00231,0.00085,0.00232,0.0839,0.03105,0.08426,4.54911,1.7363,0.64251,1.74374
0.17323,0.00244,0.00085,0.0023,0.08871,0.03088,0.08367,4.56635,1.84969,0.64399,1.7446
0.17388,0.00238,0.00085,0.00229,0.0865,0.0308,0.08308,4.58359,1.81725,0.64706,1.74546
0.17454,0.00214,0.00084,0.00227,0.07784,0.03064,0.0825,4.60083,1.64774,0.64863,1.74631
0.17519,0.0023,0.00084,0.00225,0.08353,0.03057,0.08192,4.61807,1.78131,0.65199,1.74715
0.17585,0.00215,0.00084,0.00224,0.07811,0.03066,0.08135,4.63531,1.67831,0.65884,1.74799
0.1765,0.00214,0.00084,0.00222,0.07764,0.03051,0.08079,4.65255,1.68052,0.66048,1.74882
0.17715,0.00193,0.00084,0.00221,0.07025,0.0306,0.08023,4.66978,1.53184,0.66736,1.74965
0.17781,0.00212,0.00084,0.00219,0.07691,0.03053,0.07968,4.68702,1.68949,0.67078,1.75047
0.17846,0.00196,0.00084,0.00218,0.07114,0.03058,0.07914,4.70426,1.5743,0.67674,1.75129
0.17912,0.00208,0.00084,0.00216,0.07565,0.03043,0.0786,4.7215,1.68642,0.67832,1.7521
0.17977,0.00197,0.00084,0.00215,0.07165,0.03041,0.07806,4.73874,1.60893,0.68293,1.75291
0.18042,0.00239,0.00083,0.00213,0.08689,0.03005,0.07753,4.75598,1.96542,0.67965,1.75371
0.18108,0.00193,0.00087,0.00212,0.07024,0.03155,0.07701,4.77322,1.60031,0.71885,1.75451
0.18173,0.0024,0.00088,0.0021,0.0871,0.03207,0.07649,4.79046,1.99878,0.73588,1.7553
0.18239,0.00216,0.0009,0.00209,0.07863,0.03262,0.07598,4.8077,1.81737,0.75394,1.75609
0.18304,0.00179,0.00091,0.00208,0.06513,0.03301,0.07547,4.82494,1.51621,0.76858,1.75688
0.18369,0.00178,0.00092,0.00206,0.06455,0.03341,0.07496,4.84218,1.51349,0.7834,1.75766
0.18435,0.00193,0.00092,0.00205,0.07031,0.03359,0.07447,4.85942,1.66023,0.7931,1.75843
0.185,0.00222,0.00094,0.00204,0.08072,0.03405,0.07397,4.87666,1.91961,0.80973,1.7592
0.18566,0.00187,0.00091,0.00202,0.06783,0.03291,0.07348,4.89389,1.62455,0.78824,1.75997
0.18631,0.00177,0.00089,0.00201,0.06427,0.03245,0.073,4.91113,1.55004,0.78267,1.76073
0.18696,0.00197,0.00088,0.002,0.07155,0.03205,0.07252,4.92837,1.73776,0.77844,1.76149
0.18762,0.00213,0.00087,0.00198,0.07748,0.03166,0.07205,4.94561,1.89506,0.77442,1.76224
0.18827,0.0019,0.00086,0.00197,0.0691,0.03132,0.07158,4.96285,1.70203,0.77131,1.76298
0.18893,0.00215,0.00085,0.00196,0.07802,0.03106,0.07111,4.98009,1.93488,0.77037,1.76372
0.18958,0.00235,0.00085,0.00194,0.08554,0.03073,0.07065,4.99733,2.13613,0.76736,1.76446
0.19023,0.00202,0.00084,0.00193,0.07345,0.03068,0.0702,5.01457,1.84693,0.77152,1.76518
0.19089,0.00201,0.00084,0.00192,0.07299,0.0304,0.06975,5.03181,1.84793,0.76959,1.7659
0.19154,0.00191,0.00083,0.00191,0.06956,0.03018,0.0693,5.04905,1.77321,0.76945,1.76662
0.1922,0.00193,0.00083,0.00189,0.07005,0.03004,0.06886,5.06629,1.79803,0.77106,1.76732
0.19285,0.00219,0.00083,0.00188,0.07972,0.03,0.06842,5.08353,2.06018,0.77522,1.76803
0.1935,0.00195,0.00082,0.00187,0.07085,0.02992,0.06798,5.10077,1.84348,0.77855,1.76872
0.19416,0.00204,0.00082,0.00186,0.07404,0.02989,0.06755,5.11801,1.93934,0.78304,1.76941
0.19481,0.00223,0.00082,0.00185,0.08111,0.02985,0.06712,5.13524,2.13905,0.78715,1.7701
0.19547,0.00199,0.00082,0.00184,0.07226,0.02981,0.0667,5.15248,1.91844,0.79143,1.77078
0.19612,0.00155,0.00082,0.00182,0.05643,0.02986,0.06628,5.16972,1.50821,0.79806,1.77146
0.19677,0.00166,0.00082,0.00181,0.06023,0.02971,0.06587,5.18696,1.62045,0.79944,1.77213
0.19743,0.00172,0.00082,0.0018,0.06261,0.02965,0.06546,5.2042,1.6958,0.80304,1.7728
0.19808,0.00179,0.00081,0.00179,0.06505,0.02958,0.06505,5.22144,1.77352,0.8064,1.77346
0.19874,0.00194,0.00082,0.00178,0.07055,0.02966,0.06465,5.23868,1.93603,0.81397,1.77412
0.19939,0.00187,0.00081,0.00177,0.06793,0.02945,0.06425,5.25592,1.87664,0.81356,1.77477
0.20004,0.0015,0.00081,0.00176,0.05436,0.02937,0.06385,5.27316,1.51159,0.81679,1.77542
0.2007,0.00172,0.00081,0.00175,0.06247,0.0294,0.06346,5.2904,1.74841,0.82298,1.77607
0.20135,0.0019,0.0008,0.00174,0.06912,0.02922,0.06307,5.30764,1.94717,0.82328,1.77671
0.20201,0.00224,0.00081,0.00172,0.0814,0.02927,0.06268,5.32488,2.30806,0.82992,1.77734
0.20266,0.00209,0.0008,0.00171,0.0761,0.02904,0.0623,5.34212,2.17177,0.8287,1.77798
0.20331,0.00158,0.0008,0.0017,0.05754,0.02906,0.06192,5.35935,1.65259,0.83478,1.7786
0.20397,0.00172,0.0008,0.00169,0.06254,0.02908,0.06155,5.37659,1.80796,0.84068,1.77923
0.20462,0.00181,0.0008,0.00168,0.06595,0.02893,0.06118,5.39383,1.91863,0.84177,1.77984
0.20528,0.0016,0.0008,0.00167,0.05823,0.02895,0.06081,5.41107,1.70487,0.84761,1.78046
0.20593,0.00167,0.0008,0.00166,0.06051,0.02897,0.06044,5.42831,1.78289,0.8537,1.78107
0.20658,0.00166,0.0008,0.00165,0.06043,0.02889,0.06008,5.44555,1.79205,0.85682,1.78167
0.20724,0.00164,0.0008,0.00164,0.05942,0.029,0.05972,5.46279,1.77325,0.86541,1.78227
0.20789,0.00208,0.00079,0.00163,0.07567,0.02887,0.05937,5.48003,2.27241,0.86703,1.78286
0.20855,0.00181,0.00079,0.00162,0.0659,0.02882,0.05902,5.49727,1.99151,0.87084,1.78345
0.2092,0.00166,0.00079,0.00161,0.06022,0.02887,0.05867,5.51451,1.83128,0.87784,1.78403
0.20985,0.00161,0.00079,0.0016,0.05841,0.02867,0.05832,5.53175,1.78737,0.87728,1.7846
0.21051,0.00155,0.00079,0.0016,0.0564,0.02857,0.05798,5.54899,1.7365,0.87967,1.78517
0.21116,0.00184,0.00079,0.00159,0.06683,0.02858,0.05764,5.56623,2.07051,0.8855,1.78574
0.21182,0.00168,0.00079,0.00158,0.06108,0.02856,0.0573,5.58347,1.9041,0.89038,1.78629
0.21247,0.0019,0.00079,0.00157,0.06888,0.02859,0.05696,5.6007,2.16047,0.89679,1.78685
0.21312,0.00159,0.00079,0.00156,0.05791,0.02857,0.05663,5.61794,1.82781,0.90161,1.7874
0.21378,0.0014,0.00078,0.00155,0.05096,0.0284,0.0563,5.63518,1.61818,0.90172,1.78794
0.21443,0.00127,0.00078,0.00154,0.04623,0.02848,0.05598,5.65242,1.47705,0.90981,1.78848
0.21509,0.0017,0.00078,0.00153,0.06161,0.0284,0.05565,5.66966,1.98051,0.91307,1.78901
0.21574,0.00164,0.00078,0.00152,0.05972,0.02834,0.05533,5.6869,1.93125,0.9164,1.78954
0.21639,0.00117,0.00078,0.00151,0.04257,0.02834,0.05502,5.70414,1.38503,0.92199,1.79006
0.21705,0.00178,0.00078,0.00151,0.06462,0.0283,0.0547,5.72138,2.11537,0.92645,1.79058
0.2177,0.00132,0.00078,0.0015,0.04784,0.02818,0.05439,5.73862,1.57556,0.928,1.7911
0.21836,0.00144,0.00078,0.00149,0.05251,0.02827,0.05408,5.75586,1.73953,0.93647,1.79161
0.21901,0.00155,0.00078,0.00148,0.05616,0.02819,0.05377,5.7731,1.87189,0.93945,1.79212
0.21966,0.00131,0.00077,0.00147,0.04773,0.02794,0.05347,5.79034,1.60044,0.93693,1.79262
0.22032,0.00133,0.00077,0.00146,0.04842,0.02798,0.05316,5.80758,1.63321,0.9437,1.79312
0.22097,0.00152,0.00077,0.00145,0.05515,0.02788,0.05286,5.82481,1.87124,0.94601,1.79362
0.22163,0.00191,0.00077,0.00145,0.06929,0.02794,0.05257,5.84205,2.3647,0.95356,1.79411
0.22228,0.00127,0.00077,0.00144,0.04606,0.02799,0.05227,5.85929,1.58124,0.96092,1.7946
0.22293,0.00122,0.00077,0.00143,0.04433,0.02788,0.05198,5.87653,1.53086,0.96278,1.79508
0.22359,0.001,0.00077,0.00142,0.03651,0.02796,0.05169,5.89377,1.26807,0.9711,1.79556
0.22424,0.00136,0.00077,0.00141,0.04924,0.02781,0.0514,5.91101,1.72046,0.97167,1.79603
0.2249,0.00113,0.00077,0.00141,0.04106,0.02783,0.05112,5.92825,1.44319,0.97797,1.7965
0.22555,0.00172,0.00076,0.0014,0.0624,0.02771,0.05084,5.94549,2.20568,0.97946,1.79696
0.2262,0.00157,0.00076,0.00139,0.05704,0.02771,0.05055,5.96273,2.02789,0.98534,1.79742
0.22686,0.00124,0.00076,0.00138,0.04495,0.02765,0.05028,5.97997,1.60743,0.9886,1.79788
0.22751,0.00135,0.00076,0.00138,0.04915,0.02749,0.05,5.99721,1.76762,0.98865,1.79833
0.22817,0.00169,0.00076,0.00137,0.06141,0.02758,0.04973,6.01445,2.22136,0.99784,1.79878
0.22882,0.0016,0.00076,0.00136,0.05814,0.02753,0.04945,6.03169,2.11537,1.00165,1.79922
0.22947,0.00143,0.00076,0.00135,0.05207,0.02745,0.04918,6.04893,1.90503,1.00443,1.79965
0.23013,0.00147,0.00077,0.00135,0.05334,0.02786,0.04892,6.06616,1.96289,1.02528,1.80008
0.23078,0.00128,0.00079,0.00134,0.04655,0.02865,0.04865,6.0834,1.72283,1.0601,1.80051
0.23144,0.00141,0.0008,0.00133,0.05126,0.02915,0.04839,6.10064,1.90792,1.08484,1.80093
0.23209,0.00158,0.00082,0.00132,0.05736,0.02964,0.04813,6.11788,2.14684,1.10925,1.80135
0.23274,0.00093,0.00082,0.00132,0.03375,0.02992,0.04787,6.13512,1.27037,1.12603,1.80176
0.2334,0.00127,0.00082,0.00131,0.0461,0.02994,0.04761,6.15236,1.745,1.13345,1.80217
0.23405,0.00131,0.00083,0.0013,0.04776,0.03,0.04736,6.1696,1.8179,1.14193,1.80258
0.23471,0.001,0.00083,0.0013,0.03628,0.03013,0.0471,6.18684,1.38875,1.15335,1.80298
0.23536,0.00122,0.00083,0.00129,0.04434,0.03027,0.04685,6.20408,1.70657,1.16512,1.80338
0.23601,0.00149,0.00084,0.00128,0.05413,0.03037,0.0466,6.22132,2.09509,1.17566,1.80377
0.23667,0.00137,0.00084,0.00128,0.04983,0.03044,0.04636,6.23856,1.93949,1.18473,1.80417
0.23732,0.00111,0.00084,0.00127,0.04027,0.03039,0.04611,6.2558,1.57612,1.18942,1.80455
0.23798,0.00076,0.00084,0.00126,0.02763,0.03044,0.04587,6.27304,1.08713,1.19777,1.80494
0.23863,0.0012,0.00084,0.00126,0.04363,0.03035,0.04563,6.29027,1.72627,1.20093,1.80532
0.23928,0.00163,0.00084,0.00125,0.05931,0.03049,0.04539,6.30751,2.35967,1.21322,1.8057
0.23994,0.00119,0.00084,0.00124,0.04318,0.03054,0.04515,6.32475,1.72729,1.22155,1.80608
0.24059,0.00144,0.00084,0.00124,0.05251,0.03061,0.04491,6.34199,2.11198,1.23109,1.80645
0.24125,0.00113,0.00085,0.00123,0.04098,0.03081,0.04468,6.35923,1.65738,1.24589,1.80682
0.2419,0.00124,0.00085,0.00122,0.0449,0.03095,0.04445,6.37647,1.82542,1.25858,1.80719
0.24255,0.00083,0.00085,0.00122,0.03029,0.031,0.04422,6.39371,1.2384,1.26727,1.80755
0.24321,0.00144,0.00085,0.00121,0.05227,0.03099,0.04399,6.41095,2.14814,1.27368,1.80791
0.24386,0.0013,0.00086,0.0012,0.04714,0.03117,0.04376,6.42819,1.94774,1.28808,1.80827
0.24452,0.00106,0.00085,0.0012,0.03836,0.03106,0.04354,6.44543,1.59361,1.29015,1.80862
0.24517,0.0011,0.00086,0.00119,0.03985,0.03116,0.04331,6.46267,1.66439,1.30137,1.80897
0.24582,0.00105,0.00086,0.00119,0.03817,0.03118,0.04309,6.47991,1.60278,1.30922,1.80932
0.24648,0.0011,0.00086,0.00118,0.04015,0.03119,0.04287,6.49715,1.69489,1.31663,1.80967
0.24713,0.00129,0.00086,0.00117,0.04677,0.03123,0.04265,6.51439,1.98484,1.32516,1.81001
0.24779,0.00125,0.00086,0.00117,0.0456,0.03117,0.04243,6.53162,1.94519,1.32965,1.81035
0.24844,0.00108,0.00086,0.00116,0.03943,0.03121,0.04222,6.54886,1.69096,1.33851,1.81069
0.24909,0.00104,0.00086,0.00116,0.03791,0.03113,0.04201,6.5661,1.63432,1.34225,1.81102
0.24975,0.0012,0.00086,0.00115,0.04343,0.03129,0.04179,6.58334,1.88222,1.35624,1.81135
0.2504,0.00097,0.00086,0.00114,0.0353,0.03129,0.04158,6.60058,1.53814,1.36303,1.81168
0.25106,0.00138,0.00086,0.00114,0.05022,0.0313,0.04137,6.61782,2.1994,1.37069,1.812
0.25171,0.00091,0.00086,0.00113,0.03297,0.03138,0.04117,6.63506,1.45132,1.38139,1.81232
0.25236,0.00108,0.00087,0.00113,0.03918,0.03163,0.04096,6.6523,1.73368,1.39956,1.81264
0.25302,0.00139,0.00087,0.00112,0.05068,0.03171,0.04076,6.66954,2.25445,1.41069,1.81296
0.25367,0.00115,0.00087,0.00112,0.04185,0.03176,0.04055,6.68678,1.87111,1.41995,1.81328
0.25433,0.00145,0.00089,0.00111,0.05264,0.03235,0.04035,6.70402,2.3658,1.45395,1.81359
0.25498,0.00105,0.00093,0.0011,0.03831,0.03365,0.04015,6.72126,1.73052,1.52002,1.8139
0.25563,0.00125,0.00095,0.0011,0.04541,0.03439,0.03995,6.7385,2.06178,1.56144,1.81421
0.25629,0.00123,0.00097,0.00109,0.04458,0.03518,0.03976,6.75573,2.03445,1.60558,1.81452
0.25694,0.00065,0.00099,0.00109,0.02375,0.03582,0.03956,6.77297,1.0894,1.64328,1.81483
0.2576,0.001,0.001,0.00108,0.03639,0.03642,0.03937,6.79021,1.67768,1.67922,1.81513
0.25825,0.00099,0.00102,0.00108,0.03587,0.03723,0.03918,6.80745,1.66207,1.72515,1.81544
0.2589,0.00058,0.00104,0.00107,0.02106,0.03778,0.03898,6.82469,0.98082,1.75943,1.81574
0.25956,0.00106,0.00104,0.00107,0.03854,0.03796,0.03879,6.84193,1.80426,1.77712,1.81604
0.26021,0.00157,0.00105,0.00106,0.05694,0.03824,0.03861,6.85917,2.67908,1.79908,1.81634
0.26087,0.00137,0.00107,0.00106,0.04963,0.03875,0.03842,6.87641,2.34658,1.83252,1.81664
0.26152,0.00089,0.00107,0.00105,0.03241,0.03879,0.03823,6.89365,1.54043,1.84339,1.81694
0.26217,0.00097,0.00108,0.00105,0.03531,0.03917,0.03805,6.91089,1.6863,1.8706,1.81723
0.26283,0.00107,0.0011,0.00104,0.03886,0.03989,0.03787,6.92813,1.86532,1.9145,1.81752
0.26348,0.00138,0.00109,0.00104,0.05017,0.0397,0.03768,6.94537,2.42005,1.91486,1.81782
0.26414,0.00058,0.0011,0.00103,0.02106,0.04008,0.0375,6.96261,1.02099,1.94312,1.81811
0.26479,0.00123,0.00112,0.00103,0.04462,0.04058,0.03732,6.97985,2.17404,1.97714,1.8184
0.26544,0.00044,0.00112,0.00102,0.0159,0.04088,0.03715,6.99708,0.7783,2.00132,1.81868
0.2661,0.00109,0.00113,0.00102,0.03974,0.04102,0.03697,7.01432,1.95512,2.01815,1.81897
0.26675,0.00102,0.00114,0.00101,0.03709,0.04152,0.0368,7.03156,1.8336,2.05311,1.81925
0.26741,0.00088,0.00115,0.00101,0.03189,0.04185,0.03662,7.0488,1.58472,2.07915,1.81954
0.26806,0.00146,0.00114,0.001,0.05322,0.04154,0.03645,7.06604,2.65706,2.07417,1.81982
0.26871,0.00065,0.00116,0.001,0.02365,0.04199,0.03628,7.08328,1.18672,2.10689,1.8201
0.26937,0.001,0.00116,0.00099,0.0364,0.04226,0.03611,7.10052,1.83502,2.13075,1.82038
0.27002,0.00123,0.00116,0.00099,0.0447,0.04228,0.03594,7.11776,2.26448,2.14219,1.82066
0.27068,0.0007,0.00118,0.00098,0.02558,0.04286,0.03577,7.135,1.30205,2.18201,1.82093
0.27133,0.00148,0.00119,0.00098,0.05387,0.04307,0.0356,7.15224,2.7557,2.20332,1.82121
0.27198,0.00121,0.0012,0.00098,0.04396,0.04361,0.03544,7.16948,2.25962,2.24174,1.82149
0.27264,0.00048,0.00121,0.00097,0.01728,0.04403,0.03527,7.18672,0.89252,2.2741,1.82176
0.27329,0.00105,0.00122,0.00097,0.03824,0.04442,0.03511,7.20396,1.98443,2.30513,1.82203
0.27395,0.00146,0.00123,0.00096,0.05314,0.0447,0.03495,7.22119,2.77125,2.3308,1.82231
0.2746,0.00051,0.00124,0.00096,0.01859,0.04488,0.03479,7.23843,0.97428,2.3517,1.82258
0.27525,0.00139,0.00124,0.00095,0.05059,0.04496,0.03463,7.25567,2.66311,2.36697,1.82285
0.27591,0.00083,0.00125,0.00095,0.03019,0.04527,0.03447,7.27291,1.59693,2.39451,1.82312
0.27656,0.00116,0.00125,0.00094,0.0423,0.04558,0.03431,7.29015,2.24835,2.4223,1.82339
0.27722,0.00095,0.00126,0.00094,0.03459,0.04564,0.03415,7.30739,1.84719,2.437,1.82366
0.27787,0.00103,0.00126,0.00094,0.03745,0.0459,0.034,7.32463,2.00907,2.46244,1.82393
0.27852,0.00129,0.00127,0.00093,0.04678,0.04618,0.03384,7.34187,2.52146,2.48943,1.82419
0.27918,0.00097,0.00128,0.00093,0.03521,0.04659,0.03369,7.35911,1.90688,2.5229,1.82446
0.27983,0.00021,0.00129,0.00092,0.00771,0.04683,0.03354,7.37635,0.41952,2.54795,1.82473
0.28049,0.00095,0.0013,0.00092,0.03437,0.0473,0.03338,7.39359,1.87888,2.58551,1.82499
0.28114,0.00146,0.00132,0.00091,0.05288,0.04786,0.03323,7.41083,2.90436,2.62869,1.82525
0.28179,0.00126,0.00132,0.00091,0.04594,0.04785,0.03309,7.42807,2.53474,2.64027,1.82552
0.28245,0.00063,0.00135,0.00091,0.02295,0.04898,0.03294,7.44531,1.272,2.71518,1.82578
0.2831,0.00073,0.00136,0.0009,0.02642,0.04947,0.03279,7.46254,1.47152,2.75477,1.82604
0.28376,0.00092,0.00136,0.0009,0.03329,0.04941,0.03264,7.47978,1.86261,2.76459,1.8263
0.28441,0.00083,0.00138,0.00089,0.03004,0.05032,0.0325,7.49702,1.6886,2.82819,1.82656
0.28506,0.00077,0.00139,0.00089,0.02808,0.05034,0.03235,7.51426,1.5855,2.84268,1.82681
0.28572,0.00116,0.00139,0.00089,0.04203,0.05055,0.03221,7.5315,2.38423,2.8674,1.82707
0.28637,0.00056,0.0014,0.00088,0.0202,0.05088,0.03207,7.54874,1.15119,2.89956,1.82733
0.28703,0.00108,0.00141,0.00088,0.03918,0.0512,0.03193,7.56598,2.24289,2.93086,1.82758
0.28768,0.00091,0.00142,0.00087,0.03315,0.05147,0.03179,7.58322,1.90654,2.9597,1.82783
0.28833,0.00089,0.00142,0.00087,0.03242,0.05173,0.03165,7.60046,1.87283,2.98816,1.82808
0.28899,0.00095,0.00143,0.00087,0.03449,0.05202,0.03151,7.6177,2.00133,3.01875,1.82833
0.28964,0.00107,0.00142,0.00086,0.03881,0.05178,0.03137,7.63494,2.26246,3.01809,1.82858
0.2903,0.00061,0.00144,0.00086,0.02206,0.05245,0.03123,7.65218,1.29189,3.07113,1.82883
0.29095,0.00101,0.00146,0.00086,0.03654,0.053,0.0311,7.66942,2.14935,3.1173,1.82908
0.2916,0.00117,0.00147,0.00085,0.04269,0.05336,0.03096,7.68666,2.52211,3.1525,1.82933
0.29226,0.00043,0.00149,0.00085,0.01568,0.05397,0.03083,7.70389,0.93065,3.2033,1.82957
0.29291,0.00104,0.0015,0.00084,0.03789,0.05435,0.03069,7.72113,2.25893,3.24021,1.82982
0.29357,0.00085,0.00151,0.00084,0.03089,0.05503,0.03056,7.73837,1.8499,3.29538,1.83006
0.29422,0.00082,0.00152,0.00084,0.02995,0.05539,0.03043,7.75561,1.80177,3.33189,1.83031
0.29487,0.00102,0.00152,0.00083,0.03702,0.05523,0.0303,7.77285,2.23677,3.33666,1.83055
0.29553,0.00032,0.00152,0.00083,0.01158,0.05524,0.03017,7.79009,0.70258,3.35249,1.83079
0.29618,0.00149,0.00154,0.00083,0.05406,0.05592,0.03004,7.80733,3.29498,3.40871,1.83103
0.29684,0.00103,0.00155,0.00082,0.0376,0.05645,0.02991,7.82457,2.30179,3.45633,1.83127
0.29749,0.00061,0.00155,0.00082,0.02219,0.05635,0.02978,7.84181,1.36472,3.46519,1.83151
0.29814,0.00081,0.00156,0.00082,0.02952,0.05681,0.02966,7.85905,1.82327,3.50871,1.83175
0.2988,0.00055,0.00158,0.00081,0.01994,0.05742,0.02953,7.87629,1.23697,3.5621,1.83199
0.29945,0.00064,0.00157,0.00081,0.02315,0.05694,0.02941,7.89353,1.44259,3.5478,1.83223
0.30011,0.00016,0.00158,0.00081,0.00588,0.05727,0.02928,7.91077,0.36813,3.58408,1.83246
0.30076,0.00009,0.00159,0.0008,0.00318,0.05786,0.02916,7.928,0.19981,3.63692,1.8327
0.30141,0.0006,0.0016,0.0008,0.0217,0.05805,0.02904,7.94524,1.36957,3.66456,1.83293
0.30207,0.00061,0.00163,0.0008,0.02203,0.05935,0.02891,7.96248,1.39661,3.76285,1.83317
0.30272,0.00077,0.00166,0.00079,0.02781,0.06037,0.02879,7.97972,1.77061,3.84419,1.8334
0.30338,0.00001,0.00166,0.00079,0.00032,0.06018,0.02867,7.99696,0.02026,3.84863,1.83363
0.30403,0.00002,0.0017,0.00079,0.00066,0.06162,0.02855,8.0142,0.04247,3.95793,1.83386
0.30468,-0.00034,0.00174,0.00078,-0.01241,0.06319,0.02843,8.03144,-0.80042,4.07631,1.83409
0.30534,0.00052,0.00174,0.00078,0.01887,0.06319,0.02832,8.04868,1.22273,4.09366,1.83431
0.30599,0.00137,0.00175,0.00078,0.04963,0.06346,0.0282,8.06592,3.22905,4.12896,1.83454
0.30665,0.00156,0.00178,0.00077,0.05674,0.06479,0.02808,8.08316,3.70722,4.2334,1.83476
0.3073,0.00097,0.00179,0.00077,0.03519,0.06506,0.02797,8.1004,2.30917,4.26906,1.83499
0.30795,0.00112,0.00179,0.00077,0.0407,0.06503,0.02785,8.11764,2.68169,4.28529,1.83521
0.30861,0.00058,0.00181,0.00076,0.02126,0.06594,0.02774,8.13488,1.40671,4.3639,1.83543
0.30926,0.00074,0.00182,0.00076,0.02681,0.06602,0.02762,8.15212,1.782,4.38766,1.83565
0.30992,-0.00036,0.00184,0.00076,-0.01302,0.06693,0.02751,8.16935,-0.86897,4.46658,1.83587
0.31057,0.0006,0.00185,0.00075,0.02198,0.06711,0.0274,8.18659,1.47291,4.49766,1.83609
0.31122,0.00142,0.00184,0.00075,0.05171,0.06687,0.02728,8.20383,3.48038,4.50048,1.83631
0.31188,0.00032,0.00188,0.00075,0.01145,0.06823,0.02717,8.22107,0.77404,4.61155,1.83652
0.31253,0.00132,0.00189,0.00074,0.04805,0.06862,0.02706,8.23831,3.26122,4.65716,1.83674
0.31319,0.0006,0.00192,0.00074,0.02194,0.06978,0.02695,8.25555,1.49515,4.75613,1.83695
0.31384,0.00083,0.00196,0.00074,0.03016,0.07123,0.02684,8.27279,2.06409,4.87461,1.83717
0.31449,0.00145,0.00199,0.00074,0.05252,0.07239,0.02674,8.29003,3.60969,4.97508,1.83738
0.31515,0.0005,0.00205,0.00073,0.01803,0.07467,0.02663,8.30727,1.24429,5.15296,1.8376
0.3158,0.00146,0.00209,0.00073,0.05292,0.07598,0.02652,8.32451,3.66712,5.2653,1.83781
0.31646,-0.00015,0.00213,0.00073,-0.00548,0.07745,0.02641,8.34175,-0.3813,5.38913,1.83802
0.31711,0.00059,0.00214,0.00072,0.0215,0.0779,0.02631,8.35899,1.50259,5.44299,1.83823
0.31776,0.00012,0.00216,0.00072,0.00453,0.07861,0.0262,8.37623,0.31773,5.51533,1.83844
0.31842,0.00058,0.0022,0.00072,0.02114,0.07999,0.0261,8.39346,1.4894,5.63516,1.83865
0.31907,-0.00014,0.00224,0.00072,-0.00518,0.08127,0.02599,8.4107,-0.3666,5.74872,1.83886
0.31973,0.00154,0.00225,0.00071,0.05594,0.08166,0.02589,8.42794,3.97331,5.80051,1.83906
0.32038,0.00074,0.00227,0.00071,0.02673,0.0826,0.02579,8.44518,1.9063,5.89136,1.83927
0.32103,0.00081,0.00231,0.00071,0.02929,0.08411,0.02569,8.46242,2.09774,6.02325,1.83948
0.32169,0.00008,0.00232,0.0007,0.00292,0.08446,0.02559,8.47966,0.20962,6.07278,1.83968
0.32234,0.0011,0.00232,0.0007,0.0399,0.08425,0.02548,8.4969,2.88088,6.08263,1.83988
0.323,0.00032,0.00237,0.0007,0.01171,0.0863,0.02538,8.51414,0.84914,6.25567,1.84009
0.32365,0.00074,0.0024,0.0007,0.02678,0.08723,0.02528,8.53138,1.94934,6.34919,1.84029
0.3243,0.00128,0.00246,0.00069,0.04659,0.08936,0.02518,8.54862,3.40469,6.53017,1.84049
0.32496,0.00026,0.00254,0.00069,0.00949,0.09218,0.02509,8.56586,0.6961,6.76348,1.84069
0.32561,0.00036,0.0026,0.00069,0.01303,0.09446,0.02499,8.5831,0.95995,6.95873,1.84089
0.32627,0.00094,0.00269,0.00068,0.03408,0.09772,0.02489,8.60034,2.52084,7.22774,1.84109
0.32692,0.0014,0.00275,0.00068,0.0507,0.09976,0.02479,8.61758,3.76513,7.40808,1.84128
0.32757,-0.00026,0.00278,0.00068,-0.0096,0.10088,0.0247,8.63481,-0.71542,7.52168,1.84148
0.32823,0.00016,0.00284,0.00068,0.00576,0.10309,0.0246,8.65205,0.43125,7.71718,1.84168
0.32888,0.0013,0.00287,0.00067,0.0474,0.10433,0.02451,8.66929,3.56241,7.84093,1.84187
0.32954,-0.00069,0.00296,0.00067,-0.02496,0.1075,0.02441,8.68653,-1.88351,8.11158,1.84206
0.33019,0.00083,0.00302,0.00067,0.02999,0.10976,0.02432,8.70377,2.27222,8.31462,1.84226
0.33084,0.00063,0.00313,0.00067,0.02286,0.11389,0.02422,8.72101,1.73865,8.66195,1.84245
0.3315,0.00108,0.00325,0.00066,0.03912,0.11802,0.02413,8.73825,2.98713,9.01188,1.84264
0.33215,0.00119,0.00332,0.00066,0.04318,0.12052,0.02404,8.75549,3.31045,9.23894,1.84283
0.33281,-0.00125,0.00342,0.00066,-0.04544,0.1242,0.02395,8.77273,-3.49701,9.55868,1.84302
0.33346,0.00196,0.00352,0.00066,0.07106,0.12806,0.02386,8.78997,5.49016,9.89438,1.84321
0.33411,0.00042,0.00372,0.00065,0.01513,0.13506,0.02377,8.80721,1.17358,10.47638,1.8434
0.33477,0.00134,0.00383,0.00065,0.04875,0.13907,0.02368,8.82445,3.79638,10.82925,1.84359
0.33542,0.00076,0.00396,0.00065,0.02776,0.14385,0.02359,8.84169,2.17046,11.24569,1.84378
0.33608,0.00323,0.00418,0.00065,0.1172,0.15187,0.0235,8.85892,9.1979,11.91886,1.84397
0.33673,-0.00011,0.00449,0.00064,-0.00397,0.16299,0.02341,8.87616,-0.31287,12.84156,1.84415
0.33738,0.00155,0.00485,0.00064,0.05619,0.17607,0.02332,8.8934,4.44441,13.9258,1.84434
0.33804,-0.00013,0.00498,0.00064,-0.00479,0.18106,0.02323,8.91064,-0.38009,14.37608,1.84452
0.33869,0.00028,0.00554,0.00064,0.0101,0.20118,0.02314,8.92788,0.80543,16.03536,1.84471
0.33935,-0.00072,0.00589,0.00063,-0.02619,0.2141,0.02306,8.94512,-2.09545,17.13135,1.84489
0.34,0.0029,0.00656,0.00063,0.10541,0.23846,0.02297,8.96236,8.46681,19.15409,1.84508