File: 2025/starling_2025/figures/experimental_comparison/saxs_scattering/experiment/laf1_rgg_ysg2max/mff_out.csv
#File Plotted Below: LAF1-G2MAX_hepes_RT.dat,,,,,,,,,,
,,,,,,,,,,
    #Fit from 0.01-0.15 with polymer MFF,,,,,,,,,,
#Initial search parameter for I0 = 5.74096e-05,,,,,,,,,,
#Initial search parameter for Rg = 30,,,,,,,,,,
#Initial search parameter for nu = 0.499881,,,,,,,,,,
#BestFit for I0 = 0.00006 +- 0.00000,,,,,,,,,,
#BestFit for I(0)/I0 = 1.00000 +- 0.00253,,,,,,,,,,
#BestFit for Rg = 31.47861 +- 0.09266,,,,,,,,,,
#BestFit for nu = 0.46077 +- 0.00273,,,,,,,,,,
#BestFit reduced chisquared = 1.26546,,,,,,,,,,
#-------------,,,,,,,,,,
#-------------,,,,,,,,,,
,,,,,,,,,,
    #q,I(q),Error,fit,I(q)/I0,Error/I0,fit/I0,qRg,((qRg)^2)I(q)/I0,((qRg)^2)*Error/I0,((qRg)^2)*fit/I0
0.0046,0.00006,0,0.00006,1.00067,0.06744,0.99376,0.14482,0.02099,0.00141,0.02084
0.00518,0.00006,0,0.00006,0.98304,0.054,0.99182,0.16292,0.02609,0.00143,0.02633
0.00575,0.00005,0.00001,0.00006,0.82505,0.10179,0.98964,0.18102,0.02704,0.00334,0.03243
0.00633,0.00004,0.00001,0.00006,0.66295,0.08762,0.98723,0.19913,0.02629,0.00347,0.03915
0.0069,0.00004,0.00001,0.00006,0.69344,0.08274,0.98459,0.21723,0.03272,0.0039,0.04646
0.00748,0.00005,0,0.00006,0.72639,0.07672,0.98172,0.23533,0.04023,0.00425,0.05437
0.00805,0.00005,0,0.00006,0.7252,0.0761,0.97863,0.25343,0.04658,0.00489,0.06286
0.00863,0.00005,0,0.00006,0.76167,0.06821,0.97533,0.27154,0.05616,0.00503,0.07191
0.0092,0.00005,0,0.00006,0.78774,0.06295,0.97181,0.28964,0.06608,0.00528,0.08153
0.00978,0.00005,0,0.00006,0.80528,0.0525,0.96809,0.30774,0.07626,0.00497,0.09168
0.01035,0.00005,0,0.00006,0.8779,0.05167,0.96417,0.32584,0.09321,0.00549,0.10237
0.01093,0.00006,0,0.00006,0.90197,0.04461,0.96006,0.34395,0.1067,0.00528,0.11357
0.0115,0.00006,0,0.00006,0.98909,0.04794,0.95575,0.36205,0.12965,0.00628,0.12528
0.01208,0.00006,0,0.00006,0.927,0.03644,0.95126,0.38015,0.13396,0.00527,0.13747
0.01265,0.00006,0,0.00006,0.95699,0.02807,0.94659,0.39825,0.15178,0.00445,0.15013
0.01323,0.00006,0,0.00006,0.9462,0.02242,0.94175,0.41635,0.16402,0.00389,0.16325
0.0138,0.00006,0,0.00006,0.91844,0.02051,0.93674,0.43446,0.17336,0.00387,0.17681
0.01438,0.00006,0,0.00006,0.92714,0.01878,0.93156,0.45256,0.18989,0.00385,0.19079
0.01495,0.00006,0,0.00006,0.89649,0.01844,0.92622,0.47066,0.19859,0.00408,0.20518
0.01553,0.00006,0,0.00006,0.90059,0.01793,0.92073,0.48876,0.21514,0.00428,0.21995
0.0161,0.00006,0,0.00006,0.89041,0.01809,0.91508,0.50687,0.22876,0.00465,0.2351
0.01668,0.00006,0,0.00006,0.92533,0.01603,0.9093,0.52497,0.25501,0.00442,0.2506
0.01725,0.00006,0,0.00006,0.91649,0.01567,0.90337,0.54307,0.2703,0.00462,0.26643
0.01783,0.00006,0,0.00006,0.89962,0.01522,0.89731,0.56117,0.2833,0.00479,0.28258
0.0184,0.00006,0,0.00006,0.88673,0.01499,0.89112,0.57928,0.29755,0.00503,0.29903
0.01898,0.00006,0,0.00006,0.89307,0.01393,0.88481,0.59738,0.3187,0.00497,0.31575
0.01955,0.00006,0,0.00006,0.89615,0.01359,0.87838,0.61548,0.33948,0.00515,0.33274
0.02013,0.00006,0,0.00005,0.88729,0.01259,0.87183,0.63358,0.35618,0.00505,0.34998
0.0207,0.00005,0,0.00005,0.8667,0.0124,0.86518,0.65168,0.36808,0.00526,0.36743
0.02128,0.00005,0,0.00005,0.87783,0.01247,0.85842,0.66979,0.3938,0.00559,0.3851
0.02185,0.00005,0,0.00005,0.85645,0.01263,0.85156,0.68789,0.40527,0.00598,0.40295
0.02243,0.00005,0,0.00005,0.83415,0.01235,0.84461,0.70599,0.41576,0.00615,0.42097
0.023,0.00005,0,0.00005,0.85677,0.01177,0.83757,0.72409,0.44922,0.00617,0.43915
0.02358,0.00005,0,0.00005,0.81459,0.0114,0.83044,0.74219,0.44872,0.00628,0.45745
0.02415,0.00005,0,0.00005,0.83571,0.01129,0.82324,0.7603,0.48308,0.00653,0.47588
0.02473,0.00005,0,0.00005,0.78911,0.01137,0.81597,0.7784,0.47813,0.00689,0.4944
0.0253,0.00005,0,0.00005,0.8276,0.01107,0.80862,0.7965,0.52504,0.00702,0.513
0.02588,0.00005,0,0.00005,0.79011,0.0103,0.80121,0.8146,0.5243,0.00683,0.53167
0.02645,0.00005,0,0.00005,0.78082,0.00994,0.79375,0.83271,0.54142,0.00689,0.55038
0.02703,0.00005,0,0.00005,0.78581,0.00976,0.78623,0.85081,0.56883,0.00706,0.56913
0.0276,0.00005,0,0.00005,0.789,0.00984,0.77866,0.86891,0.5957,0.00743,0.58789
0.02818,0.00005,0,0.00005,0.77093,0.00967,0.77105,0.88701,0.60656,0.00761,0.60666
0.02875,0.00005,0,0.00005,0.76009,0.00943,0.7634,0.90511,0.62268,0.00773,0.6254
0.02933,0.00005,0,0.00005,0.7482,0.00946,0.75572,0.92322,0.63771,0.00807,0.64412
0.0299,0.00005,0,0.00005,0.73447,0.00907,0.74801,0.94132,0.6508,0.00803,0.6628
0.03048,0.00005,0,0.00005,0.7272,0.00929,0.74028,0.95942,0.66937,0.00855,0.68142
0.03105,0.00005,0,0.00005,0.72891,0.00936,0.73253,0.97752,0.69651,0.00894,0.69997
0.03163,0.00005,0,0.00005,0.72588,0.0092,0.72477,0.99562,0.71954,0.00912,0.71844
0.0322,0.00004,0,0.00004,0.71725,0.00899,0.717,1.01372,0.73708,0.00924,0.73681
0.03278,0.00005,0,0.00004,0.7221,0.00882,0.70922,1.03183,0.76879,0.00939,0.75509
0.03335,0.00004,0,0.00004,0.7082,0.0088,0.70145,1.04993,0.78068,0.0097,0.77324
0.03393,0.00004,0,0.00004,0.70234,0.00869,0.69367,1.06803,0.80115,0.00991,0.79126
0.0345,0.00004,0,0.00004,0.70182,0.00888,0.6859,1.08613,0.82792,0.01047,0.80915
0.03508,0.00004,0,0.00004,0.67648,0.00859,0.67814,1.10423,0.82485,0.01047,0.82688
0.03565,0.00004,0,0.00004,0.65822,0.00866,0.67038,1.12234,0.82912,0.01091,0.84444
0.03623,0.00004,0,0.00004,0.66922,0.00844,0.66264,1.14044,0.87038,0.01098,0.86183
0.0368,0.00004,0,0.00004,0.65772,0.0084,0.65492,1.15854,0.8828,0.01128,0.87904
0.03738,0.00004,0,0.00004,0.64109,0.00809,0.64721,1.17664,0.88758,0.0112,0.89605
0.03795,0.00004,0,0.00004,0.623,0.00824,0.63952,1.19474,0.88927,0.01176,0.91286
0.03853,0.00004,0,0.00004,0.62066,0.00824,0.63186,1.21284,0.91298,0.01212,0.92946
0.0391,0.00004,0,0.00004,0.62896,0.00824,0.62422,1.23095,0.95302,0.01248,0.94584
0.03968,0.00004,0,0.00004,0.62848,0.00803,0.61661,1.24905,0.9805,0.01253,0.96199
0.04025,0.00004,0,0.00004,0.59394,0.008,0.60904,1.26715,0.95367,0.01285,0.97791
0.04083,0.00004,0,0.00004,0.60796,0.00788,0.60149,1.28525,1.00426,0.01302,0.99359
0.0414,0.00004,0,0.00004,0.58413,0.00801,0.59399,1.30335,0.99228,0.0136,1.00903
0.04198,0.00004,0,0.00004,0.57745,0.00786,0.58653,1.32145,1.00836,0.01373,1.02421
0.04255,0.00004,0,0.00004,0.58251,0.00784,0.57911,1.33955,1.04526,0.01406,1.03915
0.04313,0.00004,0,0.00004,0.57026,0.0078,0.57173,1.35766,1.05111,0.01437,1.05383
0.0437,0.00003,0,0.00004,0.54601,0.00761,0.5644,1.37576,1.03344,0.01441,1.06825
0.04428,0.00003,0,0.00003,0.53988,0.00747,0.55713,1.39386,1.04891,0.01452,1.08242
0.04485,0.00003,0,0.00003,0.55169,0.00783,0.54991,1.41196,1.09987,0.01561,1.09632
0.04543,0.00003,0,0.00003,0.53759,0.00796,0.54275,1.43006,1.09941,0.01627,1.10996
0.046,0.00003,0,0.00003,0.53327,0.00809,0.53564,1.44816,1.11837,0.01697,1.12333
0.04658,0.00003,0,0.00003,0.53743,0.00816,0.5286,1.46626,1.15544,0.01754,1.13645
0.04715,0.00003,0,0.00003,0.53513,0.008,0.52162,1.48436,1.17908,0.01762,1.14931
0.04773,0.00003,0,0.00003,0.5059,0.00811,0.51472,1.50247,1.14203,0.0183,1.16192
0.0483,0.00003,0,0.00003,0.50371,0.00801,0.50788,1.52057,1.16465,0.01851,1.17428
0.04888,0.00003,0,0.00003,0.51916,0.00829,0.50111,1.53867,1.2291,0.01962,1.18638
0.04945,0.00003,0,0.00003,0.48792,0.00793,0.49441,1.55677,1.1825,0.01921,1.19823
0.05003,0.00003,0,0.00003,0.49983,0.00796,0.48779,1.57487,1.23968,0.01975,1.20982
0.0506,0.00003,0,0.00003,0.50003,0.00791,0.48123,1.59297,1.26885,0.02008,1.22115
0.05118,0.00003,0,0.00003,0.49145,0.00812,0.47475,1.61107,1.27559,0.02108,1.23223
0.05175,0.00003,0,0.00003,0.46908,0.00814,0.46833,1.62917,1.24502,0.02161,1.24305
0.05233,0.00003,0,0.00003,0.46543,0.00796,0.46199,1.64727,1.26295,0.02161,1.25361
0.0529,0.00003,0,0.00003,0.46741,0.00776,0.45571,1.66538,1.29634,0.02154,1.26391
0.05348,0.00003,0,0.00003,0.45651,0.0078,0.44951,1.68348,1.29378,0.02209,1.27395
0.05406,0.00003,0,0.00003,0.45481,0.00787,0.44337,1.70158,1.31684,0.02279,1.28373
0.05463,0.00003,0,0.00003,0.42882,0.00794,0.43731,1.71968,1.26816,0.02347,1.29326
0.05521,0.00003,0,0.00003,0.42613,0.00773,0.43132,1.73778,1.28687,0.02334,1.30253
0.05578,0.00003,0,0.00003,0.44227,0.00775,0.42539,1.75588,1.36357,0.02391,1.31154
0.05636,0.00003,0,0.00003,0.42143,0.00777,0.41954,1.77398,1.32626,0.02446,1.3203
0.05693,0.00003,0,0.00003,0.41521,0.00769,0.41376,1.79208,1.33346,0.02471,1.32881
0.05751,0.00003,0,0.00003,0.41213,0.00786,0.40805,1.81018,1.35045,0.02575,1.33706
0.05808,0.00003,0,0.00003,0.41151,0.00773,0.4024,1.82828,1.37552,0.02583,1.34507
0.05866,0.00003,0,0.00002,0.40508,0.00785,0.39683,1.84638,1.38097,0.02676,1.35284
0.05923,0.00003,0,0.00002,0.40441,0.00757,0.39133,1.86448,1.40586,0.02633,1.36036
0.05981,0.00002,0,0.00002,0.38952,0.0075,0.38589,1.88258,1.38052,0.02657,1.36765
0.06038,0.00002,0,0.00002,0.38442,0.00749,0.38053,1.90068,1.38875,0.02704,1.37469
0.06096,0.00002,0,0.00002,0.37067,0.00755,0.37523,1.91878,1.36469,0.02778,1.38151
0.06153,0.00002,0,0.00002,0.38455,0.00766,0.37001,1.93688,1.44264,0.02872,1.3881
0.06211,0.00002,0,0.00002,0.35117,0.00747,0.36486,1.95498,1.34217,0.02857,1.39446
0.06268,0.00002,0,0.00002,0.37026,0.00763,0.35977,1.97308,1.44143,0.0297,1.40061
0.06326,0.00002,0,0.00002,0.35372,0.00757,0.35476,1.99119,1.40242,0.03002,1.40654
0.06383,0.00002,0,0.00002,0.34864,0.00734,0.34981,2.00929,1.40756,0.02965,1.41226
0.06441,0.00002,0,0.00002,0.33948,0.00732,0.34493,2.02739,1.39536,0.03007,1.41778
0.06498,0.00002,0,0.00002,0.3319,0.00737,0.34013,2.04549,1.38868,0.03085,1.42309
0.06556,0.00002,0,0.00002,0.33357,0.00747,0.33538,2.06359,1.42048,0.03181,1.4282
0.06613,0.00002,0,0.00002,0.33651,0.0074,0.33071,2.08169,1.45822,0.03208,1.43311
0.06671,0.00002,0,0.00002,0.33163,0.0072,0.32611,2.09979,1.46219,0.03176,1.43783
0.06728,0.00002,0,0.00002,0.32744,0.00727,0.32156,2.11789,1.4687,0.0326,1.44236
0.06786,0.00002,0,0.00002,0.32093,0.00727,0.31709,2.13599,1.46421,0.03315,1.44669
0.06843,0.00002,0,0.00002,0.31482,0.00736,0.31268,2.15409,1.46079,0.03417,1.45085
0.06901,0.00002,0,0.00002,0.29242,0.00725,0.30833,2.17219,1.37977,0.0342,1.45481
0.06958,0.00002,0,0.00002,0.31365,0.00716,0.30404,2.19028,1.50468,0.03437,1.4586
0.07016,0.00002,0,0.00002,0.30691,0.00706,0.29982,2.20838,1.49681,0.03445,1.46221
0.07073,0.00002,0,0.00002,0.2801,0.0072,0.29566,2.22648,1.38852,0.03571,1.46564
0.07131,0.00002,0,0.00002,0.30007,0.00712,0.29156,2.24458,1.51182,0.03585,1.46891
0.07188,0.00002,0,0.00002,0.29685,0.00718,0.28752,2.26268,1.51981,0.03674,1.472
0.07246,0.00002,0,0.00002,0.27074,0.00729,0.28353,2.28078,1.40837,0.03793,1.47493
0.07303,0.00002,0,0.00002,0.28055,0.00751,0.27961,2.29888,1.48269,0.03968,1.4777
0.0736,0.00002,0,0.00002,0.27583,0.00767,0.27574,2.31698,1.48074,0.0412,1.48031
0.07418,0.00002,0,0.00002,0.26255,0.00778,0.27194,2.33508,1.43158,0.0424,1.48276
0.07475,0.00002,0,0.00002,0.27812,0.00776,0.26818,2.35318,1.54006,0.04297,1.48506
0.07533,0.00002,0,0.00002,0.27448,0.00776,0.26449,2.37128,1.54338,0.04363,1.48721
0.0759,0.00002,0,0.00002,0.2506,0.0078,0.26085,2.38938,1.43068,0.04453,1.48921
0.07648,0.00002,0,0.00002,0.25926,0.00783,0.25726,2.40748,1.50269,0.04539,1.49107
0.07705,0.00002,0,0.00002,0.25333,0.00786,0.25373,2.42558,1.49043,0.04623,1.49278
0.07763,0.00002,0,0.00002,0.25086,0.00724,0.25025,2.44368,1.498,0.04322,1.49436
0.0782,0.00002,0,0.00002,0.2616,0.00732,0.24682,2.46178,1.58541,0.04435,1.4958
0.07878,0.00002,0,0.00002,0.24331,0.00709,0.24344,2.47988,1.49628,0.0436,1.4971
0.07935,0.00001,0,0.00002,0.23138,0.00706,0.24011,2.49797,1.44377,0.04404,1.49828
0.07993,0.00001,0,0.00001,0.23772,0.00701,0.23684,2.51607,1.50491,0.04436,1.49933
0.0805,0.00001,0,0.00001,0.23291,0.00692,0.23361,2.53417,1.49574,0.04441,1.50026
0.08108,0.00001,0,0.00001,0.22601,0.00692,0.23043,2.55227,1.47222,0.04508,1.50106
0.08165,0.00001,0,0.00001,0.23265,0.00694,0.2273,2.57037,1.53707,0.04582,1.50174
0.08223,0.00001,0,0.00001,0.22322,0.00697,0.22422,2.58847,1.49559,0.04672,1.50231
0.0828,0.00001,0,0.00001,0.20849,0.00698,0.22118,2.60657,1.41649,0.04744,1.50277
0.08338,0.00001,0,0.00001,0.20816,0.00684,0.2182,2.62467,1.43401,0.04713,1.50312
0.08395,0.00001,0,0.00001,0.20682,0.00681,0.21525,2.64276,1.4445,0.04758,1.50336
0.08453,0.00001,0,0.00001,0.20276,0.00689,0.21235,2.66086,1.43557,0.04881,1.50349
0.0851,0.00001,0,0.00001,0.2051,0.00683,0.2095,2.67896,1.472,0.04904,1.50353
0.08568,0.00001,0,0.00001,0.20245,0.00673,0.20669,2.69706,1.47263,0.04899,1.50347
0.08625,0.00001,0,0.00001,0.19937,0.00674,0.20392,2.71516,1.46978,0.0497,1.50331
0.08683,0.00001,0,0.00001,0.19529,0.00671,0.20119,2.73326,1.45893,0.05015,1.50305
0.0874,0.00001,0,0.00001,0.20348,0.00667,0.19851,2.75135,1.54032,0.05052,1.50271
0.08798,0.00001,0,0.00001,0.19405,0.00669,0.19587,2.76945,1.48831,0.05131,1.50228
0.08855,0.00001,0,0.00001,0.1812,0.00658,0.19327,2.78755,1.40798,0.05116,1.50176
0.08913,0.00001,0,0.00001,0.18379,0.00669,0.1907,2.80565,1.4467,0.05268,1.50116
0.0897,0.00001,0,0.00001,0.19861,0.00649,0.18818,2.82375,1.5836,0.05173,1.50047
0.09028,0.00001,0,0.00001,0.17761,0.00644,0.1857,2.84184,1.43438,0.05198,1.4997
0.09085,0.00001,0,0.00001,0.1777,0.00646,0.18325,2.85994,1.45342,0.05284,1.49886
0.09143,0.00001,0,0.00001,0.17998,0.00663,0.18084,2.87804,1.4908,0.0549,1.49794
0.092,0.00001,0,0.00001,0.17411,0.00653,0.17847,2.89614,1.46037,0.05477,1.49694
0.09258,0.00001,0,0.00001,0.1718,0.00645,0.17614,2.91424,1.45903,0.05476,1.49587
0.09315,0.00001,0,0.00001,0.16657,0.00648,0.17383,2.93233,1.43229,0.05576,1.49473
0.09373,0.00001,0,0.00001,0.18081,0.00645,0.17157,2.95043,1.57399,0.05615,1.49352
0.0943,0.00001,0,0.00001,0.16766,0.00643,0.16934,2.96853,1.47745,0.05667,1.49224
0.09488,0.00001,0,0.00001,0.15925,0.00637,0.16714,2.98663,1.42048,0.05681,1.49089
0.09545,0.00001,0,0.00001,0.16807,0.00646,0.16498,3.00472,1.51741,0.05834,1.48947
0.09603,0.00001,0,0.00001,0.1565,0.00649,0.16284,3.02282,1.43006,0.05933,1.48799
0.0966,0.00001,0,0.00001,0.16198,0.00639,0.16074,3.04092,1.4979,0.05907,1.48644
0.09718,0.00001,0,0.00001,0.16089,0.00642,0.15868,3.05902,1.50558,0.06007,1.48483
0.09775,0.00001,0,0.00001,0.16278,0.00631,0.15664,3.07711,1.54131,0.05974,1.48316
0.09833,0.00001,0,0.00001,0.14408,0.00634,0.15463,3.09521,1.38031,0.06078,1.48143
0.0989,0.00001,0,0.00001,0.16238,0.00638,0.15266,3.11331,1.57387,0.06181,1.47965
0.09948,0.00001,0,0.00001,0.14655,0.00624,0.15071,3.1314,1.437,0.06119,1.47781
0.10005,0.00001,0,0.00001,0.14674,0.00619,0.14879,3.1495,1.45557,0.0614,1.47593
0.10063,0.00001,0,0.00001,0.14334,0.0062,0.1469,3.1676,1.43818,0.06225,1.47399
0.1012,0.00001,0,0.00001,0.1398,0.00625,0.14505,3.18569,1.41877,0.06338,1.47202
0.10178,0.00001,0,0.00001,0.1379,0.00622,0.14321,3.20379,1.41541,0.06384,1.46999
0.10235,0.00001,0,0.00001,0.13847,0.00622,0.14141,3.22189,1.43738,0.06454,1.46792
0.10293,0.00001,0,0.00001,0.15039,0.00615,0.13963,3.23998,1.57867,0.06454,1.46582
0.1035,0.00001,0,0.00001,0.13738,0.00618,0.13789,3.25808,1.45831,0.06555,1.46367
0.10408,0.00001,0,0.00001,0.14164,0.00626,0.13616,3.27618,1.52026,0.06717,1.46149
0.10465,0.00001,0,0.00001,0.13365,0.00618,0.13447,3.29427,1.45045,0.06704,1.45926
0.10523,0.00001,0,0.00001,0.13154,0.00596,0.1328,3.31237,1.4432,0.06537,1.45701
0.1058,0.00001,0,0.00001,0.13003,0.00599,0.13115,3.33047,1.44226,0.06649,1.45472
0.10638,0.00001,0,0.00001,0.12295,0.00606,0.12953,3.34856,1.37859,0.06795,1.4524
0.10695,0.00001,0,0.00001,0.12167,0.00608,0.12793,3.36666,1.37906,0.06893,1.45004
0.10753,0.00001,0,0.00001,0.13213,0.00589,0.12636,3.38476,1.51381,0.06751,1.44766
0.1081,0.00001,0,0.00001,0.11964,0.00586,0.12481,3.40285,1.38536,0.06781,1.44524
0.10868,0.00001,0,0.00001,0.1223,0.00601,0.12329,3.42095,1.4313,0.07035,1.4428
0.10925,0.00001,0,0.00001,0.11605,0.00599,0.12178,3.43904,1.37258,0.07086,1.44033
0.10983,0.00001,0,0.00001,0.11156,0.00595,0.1203,3.45714,1.33333,0.07109,1.43783
0.1104,0.00001,0,0.00001,0.11869,0.00592,0.11884,3.47523,1.43349,0.07148,1.4353
0.11097,0.00001,0,0.00001,0.11965,0.00596,0.11741,3.49333,1.46019,0.07278,1.43274
0.11155,0.00001,0,0.00001,0.11512,0.00595,0.11599,3.51143,1.41939,0.07334,1.43016
0.11212,0.00001,0,0.00001,0.12341,0.00591,0.11459,3.52952,1.53742,0.07359,1.42755
0.1127,0.00001,0,0.00001,0.1091,0.00591,0.11322,3.54762,1.37306,0.07435,1.42492
0.11327,0.00001,0,0.00001,0.11157,0.00586,0.11186,3.56571,1.4185,0.07446,1.42226
0.11385,0.00001,0,0.00001,0.10539,0.00584,0.11053,3.58381,1.35354,0.07505,1.41958
0.11442,0.00001,0,0.00001,0.1034,0.00588,0.10921,3.6019,1.34153,0.07634,1.41688
0.115,0.00001,0,0.00001,0.12144,0.00587,0.10792,3.62,1.5914,0.07691,1.41417
0.11557,0.00001,0,0.00001,0.11191,0.0059,0.10664,3.63809,1.48125,0.07807,1.41144
0.11615,0.00001,0,0.00001,0.10705,0.00581,0.10538,3.65619,1.43098,0.07772,1.40869
0.11672,0.00001,0,0.00001,0.10048,0.00576,0.10414,3.67428,1.35651,0.07773,1.40593
0.1173,0.00001,0,0.00001,0.09742,0.00582,0.10292,3.69238,1.32813,0.07932,1.40316
0.11787,0.00001,0,0.00001,0.10463,0.00576,0.10171,3.71047,1.44044,0.07925,1.40037
0.11845,0.00001,0,0.00001,0.10314,0.00586,0.10053,3.72857,1.43385,0.08146,1.39758
0.11902,0.00001,0,0.00001,0.10822,0.00574,0.09936,3.74666,1.51908,0.08061,1.39477
0.1196,0.00001,0,0.00001,0.10009,0.00582,0.09821,3.76476,1.41857,0.08253,1.39196
0.12017,0.00001,0,0.00001,0.10787,0.00577,0.09708,3.78285,1.54368,0.08256,1.38914
0.12075,0.00001,0,0.00001,0.09732,0.00569,0.09596,3.80095,1.40606,0.08218,1.38632
0.12132,0.00001,0,0.00001,0.09678,0.00568,0.09486,3.81904,1.41154,0.08285,1.38349
0.1219,0.00001,0,0.00001,0.10164,0.00576,0.09377,3.83713,1.49644,0.08481,1.38065
0.12247,0.00001,0,0.00001,0.08655,0.00565,0.0927,3.85523,1.28639,0.08393,1.37781
0.12305,0.00001,0,0.00001,0.08273,0.00572,0.09165,3.87332,1.24117,0.08576,1.37497
0.12362,0,0,0.00001,0.07931,0.0056,0.09061,3.89142,1.20102,0.08485,1.37212
0.1242,0.00001,0,0.00001,0.08917,0.00565,0.08959,3.90951,1.36285,0.08642,1.36927
0.12477,0.00001,0,0.00001,0.08507,0.00573,0.08858,3.9276,1.31228,0.08833,1.36642
0.12535,0.00001,0,0.00001,0.0898,0.006,0.08758,3.9457,1.39798,0.09347,1.36356
0.12592,0.00001,0,0.00001,0.09193,0.00606,0.0866,3.96379,1.44436,0.09518,1.3607
0.12649,0.00001,0,0.00001,0.08093,0.00606,0.08564,3.98189,1.28323,0.09608,1.35784
0.12707,0.00001,0,0.00001,0.08808,0.00594,0.08469,3.99998,1.40929,0.09509,1.35498
0.12764,0,0,0.00001,0.078,0.00585,0.08375,4.01807,1.25934,0.09437,1.35211
0.12822,0,0,0.00001,0.07663,0.00587,0.08282,4.03617,1.24833,0.09559,1.34924
0.12879,0,0,0.00001,0.07552,0.0058,0.08191,4.05426,1.24131,0.09533,1.34637
0.12937,0,0,0.00001,0.06973,0.00579,0.08101,4.07235,1.1564,0.09597,1.3435
0.12994,0.00001,0,0.00001,0.09526,0.00576,0.08013,4.09045,1.59391,0.09643,1.34063
0.13052,0,0,0,0.07851,0.00572,0.07925,4.10854,1.32527,0.09653,1.33777
0.13109,0,0,0,0.07453,0.00568,0.07839,4.12663,1.26922,0.09673,1.3349
0.13167,0,0,0,0.07575,0.00574,0.07754,4.14472,1.30124,0.09862,1.33205
0.13224,0,0,0,0.06887,0.0057,0.0767,4.16282,1.19352,0.09885,1.32919
0.13282,0.00001,0,0,0.08005,0.00566,0.07588,4.18091,1.39928,0.09893,1.32634
0.13339,0.00001,0,0,0.08284,0.00591,0.07506,4.199,1.4606,0.10412,1.3235
0.13397,0.00001,0,0,0.08096,0.00596,0.07426,4.2171,1.43975,0.10593,1.32067
0.13454,0,0,0,0.06494,0.00599,0.07347,4.23519,1.16475,0.10749,1.31784
0.13512,0,0,0,0.06916,0.00602,0.07269,4.25328,1.25109,0.1089,1.31502
0.13569,0,0,0,0.0762,0.00609,0.07192,4.27137,1.39033,0.11117,1.31221
0.13627,0,0,0,0.07247,0.00603,0.07117,4.28947,1.33348,0.11093,1.30941
0.13684,0,0,0,0.06958,0.00605,0.07042,4.30756,1.29109,0.1122,1.30662
0.13742,0,0,0,0.07248,0.0061,0.06968,4.32565,1.35623,0.11408,1.30383
0.13799,0,0,0,0.07464,0.00615,0.06896,4.34374,1.40833,0.11596,1.30106
0.13856,0,0,0,0.06051,0.00581,0.06824,4.36183,1.15133,0.11053,1.2983
0.13914,0,0,0,0.07,0.00577,0.06753,4.37992,1.34288,0.11067,1.29555
0.13971,0,0,0,0.07358,0.0057,0.06684,4.39802,1.42327,0.11023,1.29281
0.14029,0,0,0,0.06709,0.00568,0.06615,4.41611,1.30841,0.11069,1.29008
0.14086,0,0,0,0.06998,0.00562,0.06547,4.4342,1.37596,0.11044,1.28735
0.14144,0,0,0,0.07065,0.00564,0.06481,4.45229,1.40053,0.11176,1.28464
0.14201,0,0,0,0.06437,0.00557,0.06415,4.47038,1.28635,0.11136,1.28194
0.14259,0,0,0,0.06653,0.00558,0.0635,4.48847,1.34043,0.11237,1.27925
0.14316,0,0,0,0.05745,0.00553,0.06286,4.50657,1.16682,0.11227,1.27657
0.14374,0,0,0,0.07199,0.00548,0.06222,4.52466,1.47376,0.11228,1.27389
0.14431,0,0,0,0.06823,0.00544,0.0616,4.54275,1.40795,0.11218,1.27123
0.14489,0,0,0,0.06836,0.00543,0.06099,4.56084,1.42201,0.11292,1.26857
0.14546,0,0,0,0.07037,0.00535,0.06038,4.57893,1.47541,0.11212,1.26593
0.14604,0,0,0,0.06265,0.00542,0.05978,4.59702,1.324,0.11446,1.2633
0.14661,0,0,0,0.06059,0.00539,0.05919,4.61511,1.29051,0.11484,1.26068
0.14719,0,0,0,0.06193,0.00533,0.05861,4.6332,1.32935,0.1144,1.25807
0.14776,0,0,0,0.06147,0.00541,0.05803,4.65129,1.3299,0.11698,1.25547
0.14834,0,0,0,0.0562,0.00535,0.05746,4.66938,1.2254,0.11665,1.25289
0.14891,0,0,0,0.05365,0.00538,0.0569,4.68747,1.17886,0.11831,1.25032
0.14948,0,0,0,0.06441,0.00534,0.05635,4.70556,1.42629,0.11832,1.24777
0.15006,0,0,0,0.05718,0.00529,0.05581,4.72365,1.2759,0.11809,1.24523
0.15063,0,0,0,0.05025,0.00533,0.05527,4.74174,1.12985,0.11977,1.2427
0.15121,0,0,0,0.06607,0.00522,0.05474,4.75983,1.49695,0.1182,1.24019
0.15178,0,0,0,0.05962,0.00534,0.05422,4.77792,1.36104,0.12183,1.23769
0.15236,0,0,0,0.05464,0.00538,0.0537,4.79601,1.25674,0.12373,1.23521
0.15293,0,0,0,0.06126,0.0053,0.05319,4.8141,1.41963,0.12294,1.23275
0.15351,0,0,0,0.04689,0.0053,0.05269,4.83219,1.09481,0.12369,1.2303
0.15408,0,0,0,0.05658,0.00524,0.05219,4.85028,1.33107,0.12318,1.22786
0.15466,0,0,0,0.06169,0.00526,0.0517,4.86837,1.46216,0.12477,1.22544
0.15523,0,0,0,0.05257,0.00528,0.05122,4.88646,1.2553,0.12603,1.22303
0.15581,0,0,0,0.05695,0.00531,0.05074,4.90455,1.3699,0.12778,1.22064
0.15638,0,0,0,0.05315,0.00523,0.05027,4.92264,1.288,0.12684,1.21826
0.15695,0,0,0,0.05345,0.00524,0.04981,4.94073,1.30474,0.12784,1.2159
0.15753,0,0,0,0.06158,0.00519,0.04935,4.95881,1.51417,0.12757,1.21355
0.1581,0,0,0,0.05923,0.00525,0.0489,4.9769,1.467,0.13006,1.21121
0.15868,0,0,0,0.04519,0.00522,0.04845,4.99499,1.12743,0.13032,1.20889
0.15925,0,0,0,0.04976,0.00526,0.04801,5.01308,1.25056,0.13224,1.20657
0.15983,0,0,0,0.04649,0.00519,0.04758,5.03117,1.17691,0.13132,1.20427
0.1604,0,0,0,0.0476,0.00516,0.04715,5.04926,1.21361,0.13156,1.20199
0.16098,0,0,0,0.04657,0.00515,0.04672,5.06734,1.19578,0.13233,1.19971
0.16155,0,0,0,0.05329,0.0051,0.0463,5.08543,1.37812,0.13199,1.19745
0.16213,0,0,0,0.04123,0.00509,0.04589,5.10352,1.07381,0.13251,1.1952
0.1627,0,0,0,0.04188,0.00508,0.04548,5.12161,1.09852,0.13336,1.19297
0.16328,0,0,0,0.05287,0.00509,0.04508,5.1397,1.39671,0.13451,1.19075
0.16385,0,0,0,0.04315,0.00507,0.04468,5.15778,1.14798,0.13482,1.18854
0.16443,0,0,0,0.05151,0.00512,0.04428,5.17587,1.3799,0.13706,1.18635
0.165,0,0,0,0.05061,0.00508,0.0439,5.19396,1.36537,0.13709,1.18417
0.16557,0,0,0,0.04298,0.00507,0.04351,5.21205,1.16763,0.13772,1.18201
0.16615,0,0,0,0.04442,0.005,0.04313,5.23013,1.21512,0.13666,1.17986
0.16672,0,0,0,0.04951,0.00497,0.04276,5.24822,1.36361,0.13692,1.17772
0.1673,0,0,0,0.05128,0.00496,0.04239,5.26631,1.42226,0.13763,1.1756
0.16787,0,0,0,0.04536,0.00504,0.04202,5.2844,1.26676,0.1407,1.1735
0.16845,0,0,0,0.04248,0.00501,0.04166,5.30248,1.19436,0.14093,1.1714
0.16902,0,0,0,0.04828,0.00499,0.04131,5.32057,1.36682,0.14123,1.16933
0.1696,0,0,0,0.04356,0.00506,0.04095,5.33866,1.2416,0.14412,1.16726
0.17017,0,0,0,0.04481,0.00498,0.04061,5.35674,1.28583,0.14286,1.16522
0.17075,0,0,0,0.04414,0.00497,0.04026,5.37483,1.27521,0.14357,1.16318
0.17132,0,0,0,0.04525,0.00496,0.03992,5.39291,1.31591,0.14419,1.16116
0.17189,0,0,0,0.04017,0.00504,0.03959,5.411,1.17608,0.14763,1.15915
0.17247,0,0,0,0.04233,0.00498,0.03926,5.42909,1.24768,0.14675,1.15715
0.17304,0,0,0,0.04444,0.00498,0.03893,5.44717,1.31868,0.14764,1.15517
0.17362,0,0,0,0.03154,0.00491,0.03861,5.46526,0.94203,0.14675,1.15319
0.17419,0,0,0,0.04933,0.00499,0.03829,5.48334,1.48332,0.15008,1.15123
0.17477,0,0,0,0.04175,0.0049,0.03797,5.50143,1.26371,0.14818,1.14928
0.17534,0,0,0,0.03606,0.00491,0.03766,5.51952,1.09861,0.14958,1.14734
0.17592,0,0,0,0.03336,0.00494,0.03735,5.5376,1.02297,0.15135,1.14541
0.17649,0,0,0,0.03616,0.0049,0.03705,5.55569,1.11623,0.15114,1.14349
0.17707,0,0,0,0.04059,0.00494,0.03675,5.57377,1.26099,0.15347,1.14158
0.17764,0,0,0,0.04171,0.00488,0.03645,5.59186,1.3042,0.15267,1.13969
0.17821,0,0,0,0.04514,0.00489,0.03615,5.60994,1.42072,0.15385,1.1378
0.17879,0,0,0,0.03925,0.00493,0.03586,5.62803,1.24331,0.15609,1.13592
0.17936,0,0,0,0.04513,0.00481,0.03557,5.64611,1.4388,0.15347,1.13406
0.17994,0,0,0,0.04106,0.0048,0.03529,5.6642,1.31739,0.15415,1.13221
0.18051,0,0,0,0.03773,0.00483,0.03501,5.68228,1.21817,0.15584,1.13037
0.18109,0,0,0,0.02807,0.00477,0.03473,5.70037,0.91213,0.15488,1.12854
0.18166,0,0,0,0.04026,0.00482,0.03446,5.71845,1.31669,0.15757,1.12672
0.18224,0,0,0,0.04555,0.00482,0.03418,5.73653,1.49904,0.15869,1.12491
0.18281,0,0,0,0.03289,0.0048,0.03392,5.75462,1.0893,0.15906,1.12312
0.18338,0,0,0,0.04155,0.00478,0.03365,5.7727,1.38463,0.15933,1.12134
0.18396,0,0,0,0.03661,0.00479,0.03339,5.79079,1.2277,0.16048,1.11956
0.18453,0,0,0,0.04003,0.00473,0.03313,5.80887,1.35081,0.15955,1.1178
0.18511,0,0,0,0.0353,0.00479,0.03287,5.82695,1.19845,0.16248,1.11605
0.18568,0,0,0,0.03669,0.00479,0.03262,5.84504,1.25337,0.16372,1.11432
0.18626,0,0,0,0.03433,0.00475,0.03237,5.86312,1.18021,0.16317,1.11259
0.18683,0,0,0,0.03564,0.00476,0.03212,5.8812,1.23283,0.16451,1.11087
0.18741,0,0,0,0.03683,0.00477,0.03187,5.89929,1.28162,0.16612,1.10916
0.18798,0,0,0,0.03834,0.00478,0.03163,5.91737,1.34261,0.16733,1.10747
0.18856,0,0,0,0.03607,0.00481,0.03139,5.93545,1.2708,0.16948,1.10578
0.18913,0,0,0,0.03927,0.00473,0.03115,5.95353,1.39188,0.16765,1.1041
0.1897,0,0,0,0.03441,0.00472,0.03091,5.97162,1.22715,0.16832,1.10243
0.19028,0,0,0,0.03608,0.00479,0.03068,5.9897,1.29428,0.17199,1.10077
0.19085,0,0,0,0.03438,0.00474,0.03045,6.00778,1.24097,0.17116,1.09912
0.19143,0,0,0,0.02803,0.00478,0.03022,6.02586,1.01785,0.17343,1.09747
0.192,0,0,0,0.03426,0.00466,0.03,6.04395,1.25139,0.17019,1.09584
0.19258,0,0,0,0.03476,0.00471,0.02978,6.06203,1.27744,0.173,1.09421
0.19315,0,0,0,0.0379,0.00474,0.02956,6.08011,1.40114,0.1752,1.09259
0.19372,0,0,0,0.03199,0.00468,0.02934,6.09819,1.18965,0.17412,1.09098
0.1943,0,0,0,0.02696,0.00489,0.02912,6.11627,1.00842,0.18292,1.08937
0.19487,0,0,0,0.0329,0.00491,0.02891,6.13436,1.23805,0.18469,1.08778
0.19545,0,0,0,0.03365,0.00502,0.0287,6.15244,1.27387,0.18991,1.08619
0.19602,0,0,0,0.03894,0.00508,0.02849,6.17052,1.48246,0.19339,1.08462
0.1966,0,0,0,0.03422,0.00504,0.02828,6.1886,1.31062,0.19306,1.08305
0.19717,0,0,0,0.02756,0.00495,0.02807,6.20668,1.06178,0.19066,1.08149
0.19775,0,0,0,0.03218,0.00498,0.02787,6.22476,1.24677,0.19315,1.07994
0.19832,0,0,0,0.03617,0.00501,0.02767,6.24284,1.40953,0.19545,1.0784
0.19889,0,0,0,0.03951,0.00511,0.02747,6.26092,1.5486,0.20023,1.07687
0.19947,0,0,0,0.0359,0.00485,0.02728,6.279,1.41539,0.19113,1.07535
0.20004,0,0,0,0.03243,0.00485,0.02708,6.29708,1.28581,0.19216,1.07383
0.20062,0,0,0,0.03002,0.00474,0.02689,6.31517,1.19713,0.18917,1.07233
0.20119,0,0,0,0.03533,0.00477,0.0267,6.33325,1.41726,0.19129,1.07083
0.20177,0,0,0,0.02448,0.00472,0.02651,6.35133,0.98758,0.19037,1.06934
0.20234,0,0,0,0.02431,0.0048,0.02632,6.36941,0.98642,0.19477,1.06786
0.20292,0,0,0,0.02606,0.00473,0.02614,6.38749,1.06324,0.19307,1.06639
0.20349,0,0,0,0.02243,0.00473,0.02595,6.40556,0.92047,0.19408,1.06493
0.20406,0,0,0,0.0207,0.00466,0.02577,6.42364,0.85405,0.19217,1.06347
0.20464,0,0,0,0.0393,0.00472,0.02559,6.44172,1.63088,0.19605,1.06203
0.20521,0,0,0,0.02201,0.00471,0.02542,6.4598,0.91847,0.19663,1.06059
0.20579,0,0,0,0.02731,0.00474,0.02524,6.47788,1.14601,0.19893,1.05915
0.20636,0,0,0,0.02547,0.00469,0.02507,6.49596,1.07487,0.19771,1.05773
0.20694,0,0,0,0.02935,0.00469,0.02489,6.51404,1.24535,0.19887,1.05631
0.20751,0,0,0,0.0307,0.00465,0.02472,6.53212,1.30997,0.19862,1.0549
0.20808,0,0,0,0.0304,0.00463,0.02455,6.5502,1.30432,0.19884,1.05349
0.20866,0,0,0,0.03187,0.00463,0.02439,6.56828,1.37486,0.19966,1.05209
0.20923,0,0,0,0.03137,0.00465,0.02422,6.58635,1.36105,0.20183,1.0507
0.20981,0,0,0,0.02735,0.00465,0.02406,6.60443,1.19312,0.20279,1.04932
0.21038,0,0,0,0.03506,0.00465,0.02389,6.62251,1.53767,0.20412,1.04794
0.21096,0,0,0,0.02788,0.00459,0.02373,6.64059,1.22929,0.20239,1.04657
0.21153,0,0,0,0.02431,0.00456,0.02357,6.65867,1.07802,0.20229,1.04521
0.2121,0,0,0,0.03293,0.00461,0.02342,6.67674,1.46813,0.20559,1.04385
0.21268,0,0,0,0.02315,0.00455,0.02326,6.69482,1.03751,0.20389,1.0425
0.21325,0,0,0,0.03116,0.00461,0.0231,6.7129,1.40413,0.2078,1.04116
0.21383,0,0,0,0.02053,0.00454,0.02295,6.73098,0.92993,0.20587,1.03983
0.2144,0,0,0,0.03562,0.00448,0.0228,6.74905,1.62231,0.20423,1.0385
0.21498,0,0,0,0.02108,0.00451,0.02265,6.76713,0.96554,0.20634,1.03718
0.21555,0,0,0,0.03091,0.00455,0.0225,6.78521,1.42303,0.20949,1.03587
0.21612,0,0,0,0.02023,0.00457,0.02235,6.80328,0.93625,0.21139,1.03457
0.2167,0,0,0,0.02707,0.00449,0.02221,6.82136,1.25977,0.20913,1.03327
0.21727,0,0,0,0.01831,0.00452,0.02206,6.83944,0.8566,0.21138,1.03198
0.21785,0,0,0,0.02495,0.00449,0.02192,6.85751,1.17309,0.21111,1.0307
0.21842,0,0,0,0.02006,0.00454,0.02178,6.87559,0.94838,0.21444,1.02942
0.219,0,0,0,0.02574,0.00455,0.02163,6.89367,1.22301,0.21621,1.02815
0.21957,0,0,0,0.02475,0.00449,0.0215,6.91174,1.18227,0.2144,1.02688
0.22014,0,0,0,0.0229,0.00452,0.02136,6.92982,1.09956,0.21683,1.02563
0.22072,0,0,0,0.02252,0.00449,0.02122,6.94789,1.08706,0.21686,1.02437
0.22129,0,0,0,0.02152,0.00443,0.02108,6.96597,1.04434,0.21504,1.02313
0.22187,0,0,0,0.02929,0.00448,0.02095,6.98404,1.42867,0.21872,1.02189
0.22244,0,0,0,0.02496,0.00452,0.02082,7.00212,1.22364,0.22146,1.02066
0.22301,0,0,0,0.02361,0.00446,0.02069,7.0202,1.16344,0.21983,1.01943
0.22359,0,0,0,0.02391,0.00446,0.02055,7.03827,1.18444,0.22073,1.01821
0.22416,0,0,0,0.02762,0.00443,0.02042,7.05635,1.37549,0.22037,1.01699
0.22474,0,0,0,0.02478,0.00443,0.0203,7.07442,1.24003,0.22168,1.01578
0.22531,0,0,0,0.02443,0.00444,0.02017,7.09249,1.22897,0.22332,1.01457
0.22589,0,0,0,0.02245,0.00446,0.02004,7.11057,1.13486,0.22536,1.01337
0.22646,0,0,0,0.02319,0.00449,0.01992,7.12864,1.17832,0.22816,1.01218
0.22703,0,0,0,0.02579,0.00436,0.01979,7.14672,1.31714,0.22267,1.01099
0.22761,0,0,0,0.01949,0.00435,0.01967,7.16479,1.00039,0.22348,1.00981
0.22818,0,0,0,0.02492,0.00441,0.01955,7.18286,1.28566,0.22749,1.00864
0.22876,0,0,0,0.02654,0.0044,0.01943,7.20094,1.37634,0.2282,1.00747
0.22933,0,0,0,0.0195,0.0044,0.01931,7.21901,1.01613,0.22912,1.0063
0.2299,0,0,0,0.01724,0.0044,0.01919,7.23709,0.90308,0.23038,1.00515
0.23048,0,0,0,0.02294,0.00436,0.01907,7.25516,1.20754,0.22949,1.004
0.23105,0,0,0,0.02528,0.00435,0.01896,7.27323,1.33753,0.23034,1.00285
0.23163,0,0,0,0.02041,0.00432,0.01884,7.2913,1.08519,0.22987,1.00171
0.2322,0,0,0,0.01948,0.00425,0.01873,7.30938,1.04087,0.22718,1.00058
0.23278,0,0,0,0.02554,0.00434,0.01861,7.32745,1.37147,0.23321,0.99946
0.23335,0,0,0,0.00932,0.0043,0.0185,7.34552,0.50278,0.23216,0.99834
0.23392,0,0,0,0.0195,0.0043,0.01839,7.3636,1.05707,0.23337,0.99722
0.2345,0,0,0,0.02292,0.00428,0.01828,7.38167,1.249,0.23318,0.99611
0.23507,0,0,0,0.0175,0.00429,0.01817,7.39974,0.95805,0.23496,0.99501
0.23565,0,0,0,0.01837,0.00431,0.01806,7.41781,1.01072,0.2373,0.99392
0.23622,0,0,0,0.02878,0.00436,0.01796,7.43588,1.59153,0.24104,0.99283
0.23679,0,0,0,0.02497,0.00432,0.01785,7.45395,1.38757,0.24026,0.99174
0.23737,0,0,0,0.01686,0.00429,0.01774,7.47203,0.94104,0.23957,0.99066
0.23794,0,0,0,0.02653,0.0043,0.01764,7.4901,1.48851,0.24141,0.98959
0.23852,0,0,0,0.01808,0.00432,0.01754,7.50817,1.01915,0.24337,0.98852
0.23909,0,0,0,0.0177,0.00432,0.01743,7.52624,1.0027,0.24484,0.98746
0.23966,0,0,0,0.02278,0.0043,0.01733,7.54431,1.29672,0.24462,0.9864
0.24024,0,0,0,0.02082,0.00432,0.01723,7.56238,1.19083,0.24705,0.98535
0.24081,0,0,0,0.01808,0.00425,0.01713,7.58045,1.03865,0.24402,0.9843
0.24139,0,0,0,0.02378,0.00428,0.01703,7.59852,1.37276,0.24709,0.98326
0.24196,0,0,0,0.02201,0.00426,0.01693,7.61659,1.2768,0.24732,0.98223
0.24253,0,0,0,0.01313,0.00427,0.01683,7.63466,0.76507,0.24879,0.9812
0.24311,0,0,0,0.01961,0.00429,0.01674,7.65273,1.14843,0.25123,0.98017
0.24368,0,0,0,0.03379,0.0043,0.01664,7.6708,1.98805,0.25284,0.97916
0.24426,0,0,0,0.02151,0.00426,0.01655,7.68887,1.2714,0.25171,0.97814
0.24483,0,0,0,0.02022,0.00427,0.01645,7.70694,1.20074,0.25358,0.97714
0.24541,0,0,0,0.01577,0.00428,0.01636,7.72501,0.94125,0.25522,0.97614
0.24598,0,0,0,0.01097,0.00423,0.01626,7.74308,0.65754,0.25355,0.97514
0.24655,0,0,0,0.02317,0.00425,0.01617,7.76115,1.39571,0.25589,0.97415
0.24713,0,0,0,0.01791,0.00427,0.01608,7.77922,1.08394,0.25855,0.97317
0.2477,0,0,0,0.01307,0.00421,0.01599,7.79729,0.79469,0.25587,0.97219
0.24828,0,0,0,0.02152,0.00424,0.0159,7.81536,1.31451,0.25896,0.97122
0.24885,0,0,0,0.01399,0.00422,0.01581,7.83342,0.85833,0.25915,0.97026
0.24942,0,0,0,0.0187,0.00418,0.01572,7.85149,1.15293,0.2574,0.9693
0.25,0,0,0,0.01729,0.00415,0.01564,7.86956,1.07048,0.25714,0.96834
0.25057,0,0,0,0.01454,0.00417,0.01555,7.88763,0.90471,0.25964,0.96739
0.25114,0,0,0,0.02161,0.0042,0.01546,7.9057,1.35072,0.26244,0.96645
0.25172,0,0,0,0.02227,0.00418,0.01538,7.92376,1.39822,0.26214,0.96551
0.25229,0,0,0,0.02187,0.00414,0.01529,7.94183,1.37951,0.26117,0.96458
0.25287,0,0,0,0.01049,0.00418,0.01521,7.9599,0.66479,0.265,0.96365
0.25344,0,0,0,0.01693,0.00421,0.01513,7.97797,1.07772,0.26769,0.96273
0.25401,0,0,0,0.02015,0.00419,0.01504,7.99603,1.28826,0.26818,0.96181
0.25459,0,0,0,0.01846,0.00416,0.01496,8.0141,1.18554,0.26727,0.9609
0.25516,0,0,0,0.01937,0.00423,0.01488,8.03217,1.24971,0.27283,0.96
0.25574,0,0,0,0.01332,0.00434,0.0148,8.05023,0.86351,0.28141,0.9591
0.25631,0,0,0,0.02466,0.00436,0.01472,8.0683,1.60519,0.28366,0.9582
0.25688,0,0,0,0.02281,0.00439,0.01464,8.08637,1.49157,0.28696,0.95731
0.25746,0,0,0,0.01316,0.00441,0.01456,8.10443,0.86442,0.28959,0.95642
0.25803,0,0,0,0.01806,0.00441,0.01448,8.1225,1.19158,0.29105,0.95554
0.25861,0,0,0,0.01977,0.00447,0.01441,8.14056,1.30988,0.29591,0.95467
0.25918,0,0,0,0.01515,0.00452,0.01433,8.15863,1.00872,0.30067,0.9538
0.25975,0,0,0,0.02239,0.00454,0.01425,8.17669,1.49722,0.30382,0.95294
0.26033,0,0,0,0.01518,0.00444,0.01418,8.19476,1.01917,0.29819,0.95208
0.2609,0,0,0,0.01722,0.00449,0.0141,8.21282,1.16162,0.30293,0.95123
0.26148,0,0,0,0.01515,0.00455,0.01403,8.23089,1.02645,0.30809,0.95038
0.26205,0,0,0,0.0239,0.00452,0.01395,8.24895,1.62601,0.30743,0.94954
0.26262,0,0,0,0.02191,0.00452,0.01388,8.26702,1.49752,0.30894,0.9487
0.2632,0,0,0,0.01569,0.00456,0.01381,8.28508,1.07681,0.31315,0.94787
0.26377,0,0,0,0.01204,0.00456,0.01374,8.30315,0.83013,0.31464,0.94704
0.26434,0,0,0,0.01228,0.00457,0.01367,8.32121,0.85051,0.31618,0.94622
0.26492,0,0,0,0.01715,0.00455,0.01359,8.33927,1.19236,0.31652,0.9454
0.26549,0,0,0,0.02004,0.00459,0.01352,8.35734,1.39935,0.32047,0.94459
0.26607,0,0,0,0.01623,0.00456,0.01345,8.3754,1.1384,0.31998,0.94379
0.26664,0,0,0,0.02098,0.00459,0.01339,8.39346,1.47801,0.32359,0.94299
0.26721,0,0,0,0.0094,0.00482,0.01332,8.41153,0.66538,0.34087,0.94219
0.26779,0,0,0,0.02072,0.00489,0.01325,8.42959,1.47251,0.34771,0.9414
0.26836,0,0,0,0.01828,0.00495,0.01318,8.44765,1.30428,0.35316,0.94062
0.26894,0,0,0,0.0107,0.00509,0.01311,8.46572,0.7672,0.36496,0.93984
0.26951,0,0,0,0.01553,0.00522,0.01305,8.48378,1.11773,0.37553,0.93906
0.27008,0,0,0,0.00621,0.00523,0.01298,8.50184,0.44891,0.37777,0.93829
0.27066,0,0,0,0.02705,0.00538,0.01292,8.5199,1.96378,0.39033,0.93753
0.27123,0,0,0,0.02097,0.00534,0.01285,8.53797,1.52867,0.38908,0.93677
0.2718,0,0,0,0.01071,0.0054,0.01279,8.55603,0.78423,0.39506,0.93601
0.27238,0,0,0,0.0169,0.00548,0.01272,8.57409,1.24256,0.4029,0.93526
0.27295,0,0,0,0.00816,0.00553,0.01266,8.59215,0.60261,0.40841,0.93451
0.27353,0,0,0,0.02321,0.0055,0.0126,8.61021,1.72073,0.408,0.93377
0.2741,0,0,0,0.01456,0.00552,0.01253,8.62827,1.08358,0.41111,0.93303
0.27467,0,0,0,0.01601,0.00557,0.01247,8.64633,1.19673,0.41673,0.9323
0.27525,0,0,0,0.01203,0.00566,0.01241,8.6644,0.90333,0.42454,0.93157
0.27582,0,0,0,0.01976,0.00569,0.01235,8.68246,1.48965,0.42883,0.93085
0.27639,0,0,0,0.02031,0.00569,0.01229,8.70052,1.53746,0.43043,0.93013
0.27697,0,0,0,0.01709,0.00567,0.01223,8.71858,1.29888,0.43133,0.92942
0.27754,0,0,0,0.01681,0.00574,0.01217,8.73664,1.28281,0.43798,0.92871
0.27812,0,0,0,0.01302,0.00579,0.01211,8.7547,0.998,0.44415,0.92801
0.27869,0,0,0,0.01499,0.00579,0.01205,8.77276,1.15366,0.44558,0.92731
0.27926,0,0,0,0.01384,0.00585,0.01199,8.79082,1.06971,0.45212,0.92662
0.27984,0,0,0,0.02353,0.00584,0.01193,8.80888,1.82564,0.45319,0.92593
0.28041,0,0,0,0.02301,0.00594,0.01188,8.82693,1.79253,0.46245,0.92524
0.28098,0,0,0,0.02331,0.00596,0.01182,8.84499,1.82328,0.46601,0.92457
0.28156,0,0,0,0.00539,0.006,0.01176,8.86305,0.42303,0.47119,0.92389
0.28213,0,0,0,0.01361,0.00596,0.0117,8.88111,1.07339,0.46974,0.92322
0.28271,0,0,0,0.01533,0.00608,0.01165,8.89917,1.21372,0.48147,0.92255
0.28328,0,0,0,0.0226,0.00614,0.01159,8.91723,1.79743,0.48802,0.92189
0.28385,0,0,0,0.01054,0.00621,0.01154,8.93529,0.84141,0.49541,0.92124
0.28443,0,0,0,0.01774,0.00602,0.01148,8.95334,1.42185,0.48267,0.92058
0.285,0,0,0,0.01224,0.00612,0.01143,8.9714,0.98553,0.49254,0.91994
0.28557,0,0,0,0.02134,0.00617,0.01138,8.98946,1.72438,0.4986,0.91929
0.28615,0,0,0,0.02774,0.0063,0.01132,9.00752,2.25033,0.51148,0.91865
0.28672,0,0,0,0.0165,0.00629,0.01127,9.02557,1.34406,0.5128,0.91802
0.28729,0,0,0,0.01341,0.00622,0.01122,9.04363,1.09659,0.50874,0.91739
0.28787,0,0,0,0.0214,0.00623,0.01116,9.06169,1.75756,0.51141,0.91676
0.28844,0,0,0,0.01513,0.00633,0.01111,9.07975,1.24719,0.52183,0.91614
0.28902,0,0,0,0.02937,0.0065,0.01106,9.0978,2.43092,0.53764,0.91552
0.28959,0,0,0,0.01342,0.00645,0.01101,9.11586,1.1155,0.53589,0.91491
0.29016,0,0,0,0.01653,0.0064,0.01096,9.13391,1.37949,0.53371,0.9143
0.29074,0,0,0,0.02569,0.00653,0.01091,9.15197,2.15188,0.54681,0.91369
0.29131,0,0,0,0.01581,0.00652,0.01086,9.17003,1.32972,0.54852,0.91309
0.29188,0,0,0,0.00582,0.00659,0.01081,9.18808,0.4912,0.55643,0.91249
0.29246,0,0,0,0.01647,0.00671,0.01076,9.20614,1.3961,0.56857,0.9119
0.29303,0,0,0,0.00559,0.00669,0.01071,9.22419,0.47551,0.56926,0.91131
0.2936,0,0,0,0.01717,0.00663,0.01066,9.24225,1.46631,0.56641,0.91072
0.29418,0,0,0,0.0216,0.00671,0.01061,9.2603,1.85197,0.57522,0.91014
0.29475,0,0,0,0.01997,0.00675,0.01057,9.27836,1.71876,0.58088,0.90956
0.29532,0,0,0,0.01589,0.0067,0.01052,9.29641,1.37308,0.57927,0.90899
0.2959,0,0,0,0.0043,0.00686,0.01047,9.31447,0.37274,0.59541,0.90842
0.29647,0,0,0,0.02163,0.00683,0.01042,9.33252,1.88427,0.59522,0.90785
0.29705,0,0,0,0.01114,0.00705,0.01038,9.35057,0.97441,0.61631,0.90729
0.29762,0,0,0,0.00461,0.0069,0.01033,9.36863,0.4047,0.60552,0.90673
0.29819,0,0,0,0.01533,0.00682,0.01028,9.38668,1.35033,0.60134,0.90618
0.29877,0,0,0,0.01887,0.00688,0.01024,9.40473,1.66912,0.60818,0.90563
0.29934,0,0,0,0.01624,0.00709,0.01019,9.42279,1.44155,0.62969,0.90508
0.29991,0,0,0,0.01006,0.00698,0.01015,9.44084,0.8969,0.6223,0.90453
0.30049,0,0,0,0.01761,0.00707,0.0101,9.45889,1.57524,0.63229,0.90399
0.30106,0,0,0,-0.0047,0.00696,0.01006,9.47695,-0.42197,0.62543,0.90345
0.30163,0,0,0,-0.00527,0.00689,0.01002,9.495,-0.47513,0.62147,0.90292
0.30221,0,0,0,0.0048,0.00712,0.00997,9.51305,0.43465,0.64407,0.90239
0.30278,0,0,0,0.01491,0.00733,0.00993,9.5311,1.35477,0.66571,0.90186
0.30335,0,0,0,0.0196,0.00721,0.00988,9.54916,1.78683,0.65762,0.90133
0.30393,0,0,0,0.00808,0.00728,0.00984,9.56721,0.74001,0.6665,0.90081
0.3045,0,0,0,0.00937,0.00723,0.0098,9.58526,0.861,0.6643,0.90029
0.30507,0,0,0,0.01338,0.00724,0.00976,9.60331,1.2339,0.66742,0.89978
0.30565,0,0,0,0.01548,0.00739,0.00971,9.62136,1.43281,0.68369,0.89927
0.30622,0,0,0,0.02107,0.00753,0.00967,9.63941,1.95821,0.69928,0.89876
0.30679,0,0,0,0.00097,0.00741,0.00963,9.65746,0.09043,0.69094,0.89825
0.30737,0,0,0,0.01885,0.00742,0.00959,9.67551,1.76469,0.69429,0.89775
0.30794,0,0,0,-0.00592,0.0073,0.00955,9.69356,-0.55634,0.68548,0.89725
0.30851,0,0,0,0.01315,0.00776,0.00951,9.71161,1.24019,0.73153,0.89675
0.30909,0,0,0,0.01794,0.0078,0.00947,9.72966,1.69811,0.73798,0.89626
0.30966,0,0,0,0.01243,0.00773,0.00943,9.74771,1.1812,0.73434,0.89577
0.31023,0,0,0,-0.0033,0.0078,0.00939,9.76576,-0.31475,0.74348,0.89529
0.31081,0,0,0,0.00147,0.00769,0.00935,9.78381,0.14028,0.73598,0.8948
0.31138,0,0,0,0.02584,0.00782,0.00931,9.80186,2.48248,0.75107,0.89433
0.31195,0,0,0,0.01315,0.00794,0.00927,9.81991,1.26827,0.76583,0.89385
0.31253,0,0,0,0.00453,0.00801,0.00923,9.83796,0.43856,0.7749,0.89338
0.3131,0,0,0,0.00758,0.00801,0.00919,9.85601,0.73586,0.77844,0.89291
0.31368,0,0,0,0.00979,0.00808,0.00915,9.87406,0.95481,0.78807,0.89244
0.31425,0,0,0,0.01433,0.00799,0.00912,9.8921,1.40216,0.7814,0.89198
0.31482,0,0,0,0.00533,0.00805,0.00908,9.91015,0.52385,0.79074,0.89152
0.3154,0,0,0,0.0093,0.00814,0.00904,9.9282,0.9166,0.80213,0.89107
0.31597,0,0,0,0.02135,0.00858,0.009,9.94625,2.11163,0.84831,0.89062
0.31654,0,0,0,0.00566,0.00833,0.00897,9.96429,0.56203,0.82727,0.89017
0.31712,0,0,0,0.00223,0.00822,0.00893,9.98234,0.22269,0.81938,0.88972
0.31769,0,0,0,-0.00643,0.00814,0.00889,10.00039,-0.64342,0.8139,0.88928
0.31826,0,0,0,0.00522,0.00836,0.00886,10.01844,0.52381,0.83904,0.88884
0.31883,0,0,0,0.02386,0.00871,0.00882,10.03648,2.40296,0.87701,0.88841
0.31941,0,0,0,0.00816,0.00871,0.00878,10.05453,0.82476,0.88039,0.88798
0.31998,0,0,0,0.00877,0.0088,0.00875,10.07258,0.88941,0.89264,0.88755
0.32055,0,0,0,0.01179,0.00866,0.00871,10.09062,1.2004,0.88133,0.88713
0.32113,0,0,0,0.01687,0.00865,0.00868,10.10867,1.72418,0.88346,0.8867
0.3217,0,0,0,0.01394,0.0088,0.00864,10.12671,1.42957,0.90263,0.88628
0.32227,0,0,0,0.00819,0.00885,0.00861,10.14476,0.84313,0.91128,0.88587
0.32285,0,0,0,0.02654,0.00918,0.00857,10.1628,2.74133,0.94822,0.88546
0.32342,0,0,0,0.01368,0.00919,0.00854,10.18085,1.41832,0.95217,0.88505
0.32399,0,0,0,0.02102,0.00912,0.0085,10.19889,2.18669,0.9491,0.88464
0.32457,0,0,0,0.00241,0.00896,0.00847,10.21694,0.25149,0.93556,0.88424
0.32514,0,0,0,0.02607,0.00913,0.00844,10.23498,2.73139,0.9564,0.88384
0.32571,0,0,0,0.00132,0.00947,0.0084,10.25303,0.13919,0.99506,0.88344
0.32629,0,0,0,0.02268,0.0097,0.00837,10.27107,2.39219,1.02321,0.88305
0.32686,0,0,0,0.01379,0.00973,0.00834,10.28911,1.45947,1.03005,0.88266
0.32743,0,0,0,0.01915,0.0096,0.0083,10.30716,2.03471,1.01956,0.88227
0.32801,0,0,0,0.02898,0.00951,0.00827,10.3252,3.08966,1.01348,0.88188
0.32858,0,0,0,0.01378,0.00971,0.00824,10.34324,1.47462,1.03897,0.8815
0.32915,0,0,0,0.02118,0.00991,0.00821,10.36129,2.27361,1.06337,0.88112
0.32973,0,0,0,0.00732,0.01016,0.00818,10.37933,0.78908,1.09411,0.88075
0.3303,0,0,0,0.01826,0.01014,0.00814,10.39737,1.97404,1.09623,0.88037
0.33087,0,0,0,0.01212,0.00962,0.00811,10.41541,1.31436,1.04331,0.88
0.33145,0,0,0,0.01078,0.00956,0.00808,10.43346,1.17356,1.04046,0.87963
0.33202,0,0,0,0.00348,0.0098,0.00805,10.4515,0.38012,1.07039,0.87926
0.33259,0,0,0,0.0215,0.01027,0.00802,10.46954,2.3569,1.12607,0.8789
0.33317,0,0,0,-0.00829,0.01033,0.00799,10.48758,-0.91181,1.13578,0.87854
0.33374,0,0,0,0.01719,0.00991,0.00796,10.50562,1.89722,1.09354,0.87818
0.33431,0,0,0,0.0075,0.00989,0.00793,10.52366,0.83012,1.09518,0.87782
0.33488,0,0,0,0.01626,0.01005,0.0079,10.5417,1.80712,1.1173,0.87747
0.33546,0,0,0,0.00194,0.01012,0.00787,10.55974,0.21606,1.12892,0.87711
0.33603,0,0,0,0.00882,0.01099,0.00784,10.57779,0.98672,1.2301,0.87676
0.3366,0,0,0,0.00133,0.0106,0.00781,10.59583,0.14956,1.1899,0.87641
0.33718,0,0,0,0.00565,0.01081,0.00778,10.61387,0.63642,1.21816,0.87607
0.33775,0,0,0,0.00693,0.01029,0.00775,10.6319,0.78351,1.16266,0.87572
0.33832,0,0,0,0.00993,0.01066,0.00772,10.64994,1.12657,1.20868,0.87538
0.3389,0,0,0,-0.00045,0.01116,0.00769,10.66798,-0.05125,1.26952,0.87504
0.33947,0,0,0,0.01093,0.01162,0.00766,10.68602,1.24838,1.32732,0.8747
0.34004,0,0,0,0.02452,0.01144,0.00763,10.70406,2.80995,1.31073,0.87437
0.34062,0,0,0,0.0266,0.01134,0.0076,10.7221,3.05776,1.30324,0.87403
0.34119,0,0,0,0.01989,0.01116,0.00757,10.74014,2.29461,1.28708,0.8737
0.34176,0,0,0,0.01054,0.01113,0.00755,10.75818,1.21933,1.28821,0.87337
0.34233,0,0,0,0.0031,0.0119,0.00752,10.77622,0.35946,1.38146,0.87305
0.34291,0,0,0,0.01147,0.01226,0.00749,10.79425,1.3368,1.42898,0.87272
0.34348,0,0,0,0.00315,0.0122,0.00746,10.81229,0.36769,1.42605,0.8724
0.34405,0,0,0,0.00535,0.01184,0.00743,10.83033,0.62807,1.38857,0.87208
0.34463,0,0,0,0.02183,0.01196,0.00741,10.84837,2.56895,1.40718,0.87176
0.3452,0,0,0,0.01871,0.01234,0.00738,10.8664,2.20981,1.45696,0.87144
0.34577,0,0,0,0.03945,0.0133,0.00735,10.88444,4.67346,1.57516,0.87113
0.34635,0,0,0,0.02625,0.01296,0.00733,10.90248,3.1196,1.5407,0.87081
0.34692,0,0,0,0.00719,0.01323,0.0073,10.92051,0.85795,1.57725,0.8705
0.34749,0,0,0,0.01752,0.01276,0.00727,10.93855,2.09659,1.52637,0.87019
0.34806,0,0,0,0.02874,0.01259,0.00725,10.95658,3.44976,1.51194,0.86989
0.34864,0,0,0,-0.00709,0.01303,0.00722,10.97462,-0.85401,1.5688,0.86958
0.34921,0,0,0,-0.00257,0.01393,0.00719,10.99266,-0.31082,1.68378,0.86927
0.34978,0,0,0,-0.00456,0.01417,0.00717,11.01069,-0.55321,1.71794,0.86897
0.35036,0,0,0,-0.01206,0.01448,0.00714,11.02873,-1.46675,1.76082,0.86867
0.35093,0,0,0,0.01779,0.01432,0.00712,11.04676,2.17129,1.74802,0.86837
0.3515,0,0,0,0.00943,0.01395,0.00709,11.06479,1.15508,1.70733,0.86807
0.35207,0,0,0,0.02358,0.01489,0.00706,11.08283,2.8967,1.82849,0.86778
0.35265,0,0,0,0.0097,0.01591,0.00704,11.10086,1.19503,1.96101,0.86748
0.35322,0,0,0,0.02414,0.01581,0.00701,11.1189,2.98502,1.95501,0.86719
0.35379,0,0,0,0.03305,0.01613,0.00699,11.13693,4.09884,2.00082,0.8669
0.35437,0,0,0,0.01738,0.01486,0.00696,11.15496,2.16252,1.84919,0.86661
0.35494,0,0,0,0.01446,0.01528,0.00694,11.173,1.80537,1.90764,0.86633
0.35551,0,0,0,0.00648,0.01632,0.00692,11.19103,0.81205,2.04395,0.86604
0.35609,0,0,0,0.01524,0.01802,0.00689,11.20906,1.91485,2.2639,0.86576
0.35666,0,0,0,-0.01055,0.01787,0.00687,11.2271,-1.32943,2.25242,0.86548
0.35723,0,0,0,0.04273,0.01835,0.00684,11.24513,5.40322,2.3205,0.8652
0.3578,0,0,0,0.00527,0.01747,0.00682,11.26316,0.66812,2.21652,0.86493
0.35838,0,0,0,0.03217,0.0185,0.00679,11.28119,4.09373,2.3543,0.86465
0.35895,0,0,0,0.01769,0.01985,0.00677,11.29922,2.25871,2.53436,0.86438
0.35952,0,0,0,0.00869,0.02043,0.00675,11.31726,1.11263,2.61645,0.86411
0.36009,0,0,0,0.05325,0.02193,0.00672,11.33529,6.84218,2.8182,0.86385
0.36067,0,0,0,0.01523,0.02168,0.0067,11.35332,1.96255,2.79418,0.86358
0.36124,0,0,0,0.00921,0.0214,0.00668,11.37135,1.19112,2.7678,0.86332
0.36181,0,0,0,0.00036,0.0218,0.00665,11.38938,0.04726,2.82767,0.86306
0.36239,0,0,0,0.02749,0.02643,0.00663,11.40741,3.5777,3.43891,0.8628
0.36296,0,0,0,0.00541,0.02662,0.00661,11.42544,0.70672,3.47479,0.86255