File: 2025/starling_2025/figures/experimental_comparison/saxs_scattering/experiment/rs/mff_out.csv
#File Plotted Below: rs.dat,,,,,,,,,,
,,,,,,,,,,
    #Fit from 0.01-0.25 with polymer MFF,,,,,,,,,,
#Initial search parameter for I0 = 23.564,,,,,,,,,,
#Initial search parameter for Rg = 30,,,,,,,,,,
#Initial search parameter for nu = 0.499881,,,,,,,,,,
#BestFit for I0 = 23.39318 +- 0.04383,,,,,,,,,,
#BestFit for I(0)/I0 = 1.00000 +- 0.00187,,,,,,,,,,
#BestFit for Rg = 13.63013 +- 0.04040,,,,,,,,,,
#BestFit for nu = 0.45396 +- 0.00453,,,,,,,,,,
#BestFit reduced chisquared = 1.02454,,,,,,,,,,
#-------------,,,,,,,,,,
#-------------,,,,,,,,,,
,,,,,,,,,,
    #q,I(q),Error,fit,I(q)/I0,Error/I0,fit/I0,qRg,((qRg)^2)I(q)/I0,((qRg)^2)*Error/I0,((qRg)^2)*fit/I0
0.00871,4.375,54.7149,23.30175,0.18702,2.33893,0.99609,0.11875,0.00264,0.03298,0.01405
0.00981,28.545,11.8187,23.27163,1.22023,0.50522,0.9948,0.13366,0.0218,0.00903,0.01777
0.0109,17.595,7.92122,23.23755,0.75214,0.33861,0.99335,0.14857,0.0166,0.00747,0.02192
0.01199,28.65,5.79839,23.1996,1.22472,0.24787,0.99173,0.16347,0.03273,0.00662,0.0265
0.01309,27.195,4.26245,23.15783,1.16252,0.18221,0.98994,0.17838,0.03699,0.0058,0.0315
0.01418,24.719,3.25788,23.1123,1.05668,0.13927,0.98799,0.19328,0.03948,0.0052,0.03691
0.01527,26.419,2.63626,23.0631,1.12935,0.11269,0.98589,0.20819,0.04895,0.00488,0.04273
0.01637,22.2765,2.11028,23.01027,0.95226,0.09021,0.98363,0.2231,0.0474,0.00449,0.04896
0.01746,22.5245,1.72439,22.95389,0.96287,0.07371,0.98122,0.238,0.05454,0.00418,0.05558
0.01856,24.095,1.45881,22.89402,1.03,0.06236,0.97866,0.25291,0.06588,0.00399,0.0626
0.01965,24.2475,1.22254,22.83074,1.03652,0.05226,0.97596,0.26781,0.07434,0.00375,0.07
0.02074,23.2395,1.053,22.7641,0.99343,0.04501,0.97311,0.28272,0.07941,0.0036,0.07778
0.02184,22.7175,0.96839,22.69418,0.97112,0.0414,0.97012,0.29763,0.08602,0.00367,0.08593
0.02293,22.3025,0.84368,22.62103,0.95338,0.03607,0.96699,0.31253,0.09312,0.00352,0.09445
0.02402,23.142,0.77263,22.54473,0.98926,0.03303,0.96373,0.32744,0.10607,0.00354,0.10333
0.02512,21.93,0.7165,22.46534,0.93745,0.03063,0.96034,0.34235,0.10987,0.00359,0.11255
0.02621,22.4358,0.62393,22.38293,0.95907,0.02667,0.95681,0.35725,0.12241,0.0034,0.12212
0.0273,22.7507,0.58204,22.29756,0.97254,0.02488,0.95317,0.37216,0.1347,0.00345,0.13201
0.0284,22.8561,0.54543,22.2093,0.97704,0.02332,0.94939,0.38706,0.14638,0.00349,0.14224
0.02949,22.1792,0.50834,22.11822,0.94811,0.02173,0.9455,0.40197,0.15319,0.00351,0.15277
0.03058,21.3689,0.47919,22.02437,0.91347,0.02048,0.94149,0.41688,0.15875,0.00356,0.16362
0.03168,21.5661,0.45251,21.92785,0.9219,0.01934,0.93736,0.43178,0.17187,0.00361,0.17476
0.03277,21.5293,0.43591,21.82869,0.92032,0.01863,0.93312,0.44669,0.18363,0.00372,0.18619
0.03387,21.3062,0.42375,21.72698,0.91079,0.01811,0.92877,0.46159,0.19406,0.00386,0.19789
0.03496,21.0117,0.42166,21.62277,0.8982,0.01803,0.92432,0.4765,0.20394,0.00409,0.20987
0.03605,20.9817,0.4042,21.51613,0.89692,0.01728,0.91976,0.49141,0.21659,0.00417,0.2221
0.03715,21.286,0.40342,21.40714,0.90992,0.01725,0.9151,0.50631,0.23326,0.00442,0.23459
0.03824,20.9521,0.38937,21.29586,0.89565,0.01664,0.91034,0.52122,0.24332,0.00452,0.24731
0.03933,21.3549,0.38234,21.18234,0.91287,0.01634,0.90549,0.53612,0.26239,0.0047,0.26027
0.04043,20.2112,0.38212,21.06667,0.86398,0.01633,0.90055,0.55103,0.26233,0.00496,0.27344
0.04152,20.9037,0.37417,20.9489,0.89358,0.01599,0.89551,0.56594,0.2862,0.00512,0.28682
0.04261,20.5358,0.36086,20.82909,0.87785,0.01543,0.89039,0.58084,0.29617,0.0052,0.3004
0.04371,20.6382,0.369,20.70733,0.88223,0.01577,0.88519,0.59575,0.31312,0.0056,0.31417
0.0448,20.1683,0.36053,20.58368,0.86214,0.01541,0.8799,0.61066,0.32149,0.00575,0.32812
0.0459,19.6398,0.35133,20.45819,0.83955,0.01502,0.87454,0.62556,0.32854,0.00588,0.34223
0.04699,19.8042,0.35767,20.33094,0.84658,0.01529,0.8691,0.64047,0.34727,0.00627,0.3565
0.04808,20.0963,0.34594,20.20199,0.85907,0.01479,0.86358,0.65537,0.36898,0.00635,0.37092
0.04918,19.6587,0.34268,20.0714,0.84036,0.01465,0.858,0.67028,0.37755,0.00658,0.38548
0.05027,19.4225,0.34193,19.93925,0.83026,0.01462,0.85235,0.68519,0.38979,0.00686,0.40016
0.05136,19.8172,0.33868,19.80561,0.84714,0.01448,0.84664,0.70009,0.41521,0.0071,0.41496
0.05246,19.288,0.34288,19.67053,0.82451,0.01466,0.84087,0.715,0.42151,0.00749,0.42987
0.05355,19.5459,0.34098,19.53409,0.83554,0.01458,0.83503,0.7299,0.44514,0.00777,0.44487
0.05464,19.3496,0.33674,19.39634,0.82715,0.01439,0.82915,0.74481,0.45886,0.00799,0.45996
0.05574,18.8463,0.3392,19.25736,0.80563,0.0145,0.8232,0.75972,0.46499,0.00837,0.47513
0.05683,18.6677,0.33454,19.11721,0.798,0.0143,0.81721,0.77462,0.47883,0.00858,0.49036
0.05793,19.3099,0.33238,18.97597,0.82545,0.01421,0.81118,0.78953,0.51455,0.00886,0.50565
0.05902,19.1584,0.32745,18.83368,0.81897,0.014,0.80509,0.80444,0.52997,0.00906,0.52099
0.06011,18.8062,0.32802,18.69043,0.80392,0.01402,0.79897,0.81934,0.53969,0.00941,0.53636
0.06121,18.7147,0.32467,18.54627,0.80001,0.01388,0.79281,0.83425,0.55678,0.00966,0.55177
0.0623,18.6041,0.32431,18.40128,0.79528,0.01386,0.78661,0.84915,0.57345,0.01,0.56719
0.06339,18.6804,0.32609,18.25551,0.79854,0.01394,0.78038,0.86406,0.59619,0.01041,0.58263
0.06449,18.5594,0.31831,18.10905,0.79337,0.01361,0.77412,0.87897,0.61294,0.01051,0.59807
0.06558,18.3722,0.32085,17.96195,0.78537,0.01372,0.76783,0.89387,0.62751,0.01096,0.6135
0.06667,18.104,0.31284,17.81427,0.7739,0.01337,0.76152,0.90878,0.63915,0.01104,0.62892
0.06777,17.827,0.30824,17.66608,0.76206,0.01318,0.75518,0.92369,0.65019,0.01124,0.64432
0.06886,17.4537,0.31405,17.51746,0.7461,0.01343,0.74883,0.93859,0.65728,0.01183,0.65968
0.06996,17.6142,0.30431,17.36847,0.75296,0.01301,0.74246,0.9535,0.68456,0.01183,0.67501
0.07105,17.0991,0.30278,17.21917,0.73094,0.01294,0.73608,0.9684,0.68548,0.01214,0.6903
0.07214,17.3026,0.30553,17.06963,0.73964,0.01306,0.72968,0.98331,0.71516,0.01263,0.70553
0.07324,17.0441,0.30232,16.91991,0.72859,0.01292,0.72328,0.99821,0.72599,0.01288,0.7207
0.07433,16.5999,0.29959,16.77008,0.7096,0.01281,0.71688,1.01312,0.72835,0.01314,0.73582
0.07542,16.8253,0.2987,16.62018,0.71924,0.01277,0.71047,1.02803,0.76012,0.01349,0.75086
0.07652,17.079,0.29796,16.47026,0.73008,0.01274,0.70406,1.04293,0.79412,0.01385,0.76582
0.07761,16.8061,0.29839,16.32035,0.71842,0.01276,0.69765,1.05784,0.80393,0.01427,0.78069
0.0787,16.1087,0.30314,16.17047,0.68861,0.01296,0.69125,1.07275,0.79244,0.01491,0.79548
0.0798,16.2222,0.30102,16.02066,0.69346,0.01287,0.68484,1.08765,0.82035,0.01522,0.81016
0.08089,16.3066,0.30212,15.87098,0.69707,0.01291,0.67844,1.10256,0.84738,0.0157,0.82474
0.08198,16.7448,0.30562,15.72145,0.7158,0.01306,0.67205,1.11746,0.89384,0.01631,0.83921
0.08308,15.9573,0.29874,15.5721,0.68213,0.01277,0.66567,1.13237,0.87468,0.01638,0.85356
0.08417,15.3244,0.30576,15.42298,0.65508,0.01307,0.65929,1.14728,0.86224,0.0172,0.86779
0.08527,15.5812,0.30436,15.27412,0.66606,0.01301,0.65293,1.16218,0.89962,0.01757,0.88189
0.08636,14.9034,0.30044,15.12553,0.63708,0.01284,0.64658,1.17709,0.8827,0.01779,0.89586
0.08745,15.607,0.30302,14.97729,0.66716,0.01295,0.64024,1.192,0.94794,0.0184,0.90969
0.08855,15.0467,0.30253,14.82942,0.64321,0.01293,0.63392,1.2069,0.93691,0.01884,0.92338
0.08964,14.9687,0.30239,14.68195,0.63987,0.01293,0.62762,1.22181,0.95521,0.0193,0.93691
0.09073,14.9402,0.30198,14.53492,0.63866,0.01291,0.62133,1.23671,0.9768,0.01974,0.9503
0.09183,14.4494,0.30189,14.38836,0.61768,0.01291,0.61507,1.25162,0.96762,0.02022,0.96353
0.09292,14.3462,0.2981,14.2423,0.61326,0.01274,0.60882,1.26653,0.98373,0.02044,0.97661
0.09401,14.1117,0.30508,14.0968,0.60324,0.01304,0.6026,1.28143,0.99056,0.02141,0.98952
0.09511,14.0977,0.30136,13.95188,0.60264,0.01288,0.59641,1.29634,1.01273,0.02165,1.00226
0.0962,13.7511,0.29853,13.80759,0.58783,0.01276,0.59024,1.31124,1.01068,0.02194,1.01484
0.0973,13.8334,0.30355,13.66395,0.59134,0.01298,0.5841,1.32615,1.03998,0.02282,1.02724
0.09839,13.7633,0.30493,13.52098,0.58835,0.01303,0.57799,1.34106,1.0581,0.02344,1.03947
0.09948,13.2884,0.29822,13.37876,0.56805,0.01275,0.57191,1.35596,1.04443,0.02344,1.05153
0.10058,13.0029,0.29867,13.23735,0.55584,0.01277,0.56586,1.37086,1.04457,0.02399,1.06341
0.10167,12.8811,0.30161,13.09664,0.55063,0.01289,0.55985,1.38578,1.05742,0.02476,1.07512
0.10276,12.8995,0.29508,12.95676,0.55142,0.01261,0.55387,1.40069,1.08185,0.02475,1.08665
0.10386,13.0535,0.30126,12.81789,0.558,0.01288,0.54793,1.41558,1.11817,0.02581,1.09799
0.10495,12.4885,0.29938,12.67979,0.53385,0.0128,0.54203,1.4305,1.09243,0.02619,1.10916
0.10604,12.2717,0.29523,12.54277,0.52458,0.01262,0.53617,1.44539,1.09594,0.02637,1.12015
0.10714,13.0383,0.30011,12.40659,0.55735,0.01283,0.53035,1.4603,1.18855,0.02736,1.13097
0.10823,12.524,0.29693,12.27144,0.53537,0.01269,0.52457,1.47522,1.16511,0.02762,1.14161
0.10933,12.1171,0.29582,12.13746,0.51798,0.01265,0.51885,1.49011,1.15013,0.02808,1.15207
0.11042,12.1307,0.29878,12.00445,0.51856,0.01277,0.51316,1.50503,1.17458,0.02893,1.16236
0.11151,12.0218,0.2922,11.87255,0.5139,0.01249,0.50752,1.51994,1.18722,0.02886,1.17248
0.11261,11.4202,0.29691,11.74188,0.48819,0.01269,0.50194,1.53483,1.15003,0.0299,1.18242
0.1137,11.9436,0.29328,11.61221,0.51056,0.01254,0.49639,1.54975,1.22622,0.03011,1.19219
0.11479,11.3771,0.2958,11.48376,0.48634,0.01264,0.4909,1.56464,1.19062,0.03096,1.20178
0.11589,11.4265,0.29366,11.35632,0.48845,0.01255,0.48545,1.57955,1.21869,0.03132,1.2112
0.11698,11.47,0.29412,11.22998,0.49031,0.01257,0.48005,1.59447,1.24654,0.03196,1.22045
0.11807,10.5298,0.29279,11.10488,0.45012,0.01252,0.47471,1.60936,1.16584,0.03242,1.22951
0.11917,10.964,0.29318,10.98077,0.46868,0.01253,0.4694,1.62428,1.23651,0.03306,1.2384
0.12026,10.7407,0.29155,10.85777,0.45914,0.01246,0.46414,1.63919,1.23367,0.03349,1.24712
0.12136,10.5009,0.29283,10.736,0.44889,0.01252,0.45894,1.65408,1.22815,0.03425,1.25565
0.12245,10.2993,0.29206,10.61522,0.44027,0.01248,0.45377,1.669,1.22639,0.03478,1.26401
0.12382,10.4302,0.32607,10.46587,0.44587,0.01394,0.44739,1.68763,1.26986,0.0397,1.27421
0.12491,10.3337,0.3515,10.3477,0.44174,0.01503,0.44234,1.70253,1.28042,0.04355,1.28216
0.126,10.8398,0.37617,10.23053,0.46337,0.01608,0.43733,1.71744,1.36676,0.04743,1.28994
0.1271,10.4745,0.32793,10.11447,0.44776,0.01402,0.43237,1.73235,1.34374,0.04207,1.29755
0.12819,10.3176,0.31449,9.99962,0.44105,0.01344,0.42746,1.74725,1.34647,0.04104,1.30498
0.12928,9.56585,0.30448,9.88578,0.40892,0.01302,0.42259,1.76216,1.26977,0.04042,1.31223
0.13038,9.73185,0.29532,9.77314,0.41601,0.01262,0.41778,1.77706,1.31374,0.03987,1.31931
0.13147,9.625,0.29514,9.66151,0.41144,0.01262,0.41301,1.79197,1.32121,0.04051,1.32622
0.13256,9.42955,0.29024,9.55099,0.40309,0.01241,0.40828,1.80688,1.31601,0.04051,1.33296
0.13366,9.9249,0.29583,9.44168,0.42426,0.01265,0.40361,1.82178,1.40808,0.04197,1.33952
0.13475,9.5744,0.29405,9.33337,0.40928,0.01257,0.39898,1.83669,1.38068,0.0424,1.34592
0.13585,8.8757,0.29291,9.22617,0.37941,0.01252,0.3944,1.8516,1.30079,0.04293,1.35215
0.13694,8.95505,0.2893,9.12016,0.38281,0.01237,0.38986,1.8665,1.33362,0.04308,1.35821
0.13803,8.89955,0.28822,9.01517,0.38043,0.01232,0.38538,1.88141,1.34662,0.04361,1.36411
0.13913,9.0618,0.28627,8.91138,0.38737,0.01224,0.38094,1.89631,1.39297,0.044,1.36985
0.14022,9.0457,0.28808,8.80859,0.38668,0.01231,0.37655,1.91122,1.41245,0.04498,1.37543
0.14131,8.84085,0.28724,8.70691,0.37792,0.01228,0.3722,1.92613,1.40209,0.04555,1.38085
0.14241,9.0259,0.28797,8.60642,0.38583,0.01231,0.3679,1.94103,1.45366,0.04638,1.3861
0.1435,8.7495,0.28678,8.50695,0.37402,0.01226,0.36365,1.95594,1.43088,0.0469,1.39121
0.14459,8.32035,0.28373,8.40866,0.35567,0.01213,0.35945,1.97083,1.38151,0.04711,1.39617
0.14569,8.11835,0.2825,8.31139,0.34704,0.01208,0.35529,1.98575,1.36844,0.04762,1.40098
0.14678,7.9313,0.27737,8.21522,0.33904,0.01186,0.35118,2.00066,1.35706,0.04746,1.40564
0.14788,8.0559,0.27252,8.12024,0.34437,0.01165,0.34712,2.01556,1.39899,0.04733,1.41016
0.14897,8.18195,0.26992,8.02626,0.34976,0.01154,0.3431,2.03047,1.44198,0.04757,1.41454
0.15006,8.1193,0.2751,7.93337,0.34708,0.01176,0.33913,2.04538,1.45203,0.0492,1.41878
0.15116,7.13565,0.27473,7.84163,0.30503,0.01174,0.33521,2.06028,1.29478,0.04985,1.42288
0.15225,7.87105,0.27367,7.75087,0.33647,0.0117,0.33133,2.07519,1.44897,0.05038,1.42684
0.15334,7.47645,0.27451,7.66125,0.3196,0.01173,0.3275,2.09008,1.39616,0.05126,1.43067
0.15444,7.4153,0.27036,7.5726,0.31699,0.01156,0.32371,2.105,1.40457,0.05121,1.43436
0.15553,7.422,0.27281,7.48498,0.31727,0.01166,0.31996,2.11991,1.42582,0.05241,1.43792
0.15662,7.42665,0.27446,7.39847,0.31747,0.01173,0.31627,2.13481,1.44684,0.05347,1.44135
0.15772,7.20315,0.27452,7.3129,0.30792,0.01174,0.31261,2.14972,1.42297,0.05423,1.44465
0.15881,7.15045,0.27264,7.22835,0.30566,0.01165,0.30899,2.16463,1.43222,0.05461,1.44783
0.1599,6.69065,0.27084,7.14486,0.28601,0.01158,0.30543,2.17953,1.35864,0.055,1.45087
0.161,6.9543,0.2707,7.0623,0.29728,0.01157,0.3019,2.19444,1.43156,0.05573,1.45379
0.16209,7.2549,0.27092,6.98079,0.31013,0.01158,0.29841,2.20933,1.51379,0.05653,1.45659
0.16319,6.7987,0.27066,6.90018,0.29063,0.01157,0.29497,2.22425,1.43781,0.05724,1.45927
0.16428,6.1741,0.26869,6.82053,0.26393,0.01149,0.29156,2.23916,1.32329,0.05759,1.46184
0.16537,6.5721,0.27039,6.74192,0.28094,0.01156,0.2882,2.25406,1.42739,0.05873,1.46428
0.16647,6.3599,0.26801,6.66417,0.27187,0.01146,0.28488,2.26897,1.39964,0.05898,1.46661
0.16756,6.65125,0.26547,6.58744,0.28432,0.01135,0.2816,2.28386,1.48305,0.05919,1.46882
0.16865,6.3827,0.26578,6.51156,0.27284,0.01136,0.27835,2.29878,1.44181,0.06004,1.47092
0.16975,6.05395,0.26528,6.4366,0.25879,0.01134,0.27515,2.31369,1.38535,0.06071,1.47291
0.17084,6.24285,0.26625,6.36262,0.26687,0.01138,0.27199,2.32858,1.44703,0.06171,1.47479
0.17194,6.40785,0.26588,6.28947,0.27392,0.01137,0.26886,2.3435,1.50436,0.06242,1.47657
0.17303,6.44455,0.26818,6.21721,0.27549,0.01146,0.26577,2.35841,1.53229,0.06376,1.47824
0.17412,6.08595,0.26808,6.1459,0.26016,0.01146,0.26272,2.37331,1.46537,0.06455,1.4798
0.17522,6.23245,0.26783,6.0754,0.26642,0.01145,0.25971,2.38822,1.51956,0.0653,1.48127
0.17631,5.6175,0.26395,6.00582,0.24013,0.01128,0.25673,2.40311,1.38676,0.06516,1.48263
0.1774,5.7005,0.26568,5.93704,0.24368,0.01136,0.25379,2.41803,1.42477,0.0664,1.48389
0.1785,5.3851,0.26507,5.8691,0.2302,0.01133,0.25089,2.43294,1.36259,0.06707,1.48506
0.17959,6.01295,0.26225,5.80207,0.25704,0.01121,0.24802,2.44783,1.54015,0.06717,1.48613
0.18068,5.9918,0.26473,5.73579,0.25613,0.01132,0.24519,2.46275,1.55349,0.06864,1.48711
0.18178,5.4599,0.26368,5.6704,0.2334,0.01127,0.2424,2.47764,1.43276,0.06919,1.488
0.18287,5.5615,0.26281,5.60576,0.23774,0.01123,0.23963,2.49256,1.47704,0.0698,1.48879
0.18396,5.40365,0.26282,5.54191,0.23099,0.01123,0.2369,2.50747,1.45234,0.07064,1.4895
0.18506,5.7432,0.26301,5.47892,0.24551,0.01124,0.23421,2.52236,1.562,0.07153,1.49012
0.18615,5.006,0.26317,5.41665,0.21399,0.01125,0.23155,2.53728,1.37764,0.07243,1.49065
0.18725,5.50825,0.26023,5.35516,0.23546,0.01112,0.22892,2.55219,1.53373,0.07246,1.4911
0.18834,4.9682,0.26223,5.29448,0.21238,0.01121,0.22633,2.56708,1.39956,0.07387,1.49147
0.18943,4.67165,0.26248,5.23452,0.1997,0.01122,0.22376,2.582,1.33135,0.0748,1.49176
0.19053,5.43125,0.26259,5.17535,0.23217,0.01123,0.22123,2.59689,1.56574,0.0757,1.49197
0.19162,5.2106,0.26062,5.11688,0.22274,0.01114,0.21873,2.61181,1.51943,0.076,1.4921
0.19271,5.1218,0.25958,5.05914,0.21894,0.0111,0.21627,2.62672,1.51064,0.07656,1.49216
0.19381,5.11155,0.25813,5.00218,0.21851,0.01103,0.21383,2.64161,1.52476,0.077,1.49214
0.1949,4.83815,0.25838,4.94588,0.20682,0.01105,0.21142,2.65653,1.45955,0.07795,1.49205
0.196,4.73255,0.25797,4.8903,0.2023,0.01103,0.20905,2.67144,1.44376,0.0787,1.49189
0.19709,4.38585,0.25867,4.83546,0.18748,0.01106,0.2067,2.68633,1.35296,0.0798,1.49166
0.19818,4.6294,0.2572,4.78127,0.1979,0.01099,0.20439,2.70125,1.44399,0.08022,1.49136
0.19928,4.95735,0.26039,4.72782,0.21191,0.01113,0.2021,2.71614,1.56338,0.08212,1.491
0.20037,4.7518,0.26088,4.67499,0.20313,0.01115,0.19984,2.73106,1.51506,0.08318,1.49057
0.20146,4.69525,0.25921,4.62283,0.20071,0.01108,0.19761,2.74597,1.51342,0.08355,1.49008
0.20256,4.3916,0.26051,4.57138,0.18773,0.01114,0.19542,2.76086,1.43095,0.08488,1.48953
0.20365,4.0822,0.25634,4.52053,0.1745,0.01096,0.19324,2.77578,1.34454,0.08443,1.48891
0.20474,3.9073,0.25591,4.47038,0.16703,0.01094,0.1911,2.79067,1.30079,0.0852,1.48824
0.20584,4.3604,0.25751,4.42081,0.1864,0.01101,0.18898,2.80558,1.46718,0.08665,1.48751
0.20693,4.54445,0.25839,4.37187,0.19426,0.01105,0.18689,2.8205,1.54541,0.08787,1.48672
0.20802,4.7529,0.25628,4.3236,0.20317,0.01096,0.18482,2.83539,1.63341,0.08807,1.48588
0.20912,4.6197,0.25737,4.27589,0.19748,0.011,0.18278,2.8503,1.60438,0.08938,1.48498
0.21021,4.61885,0.25354,4.22879,0.19744,0.01084,0.18077,2.86522,1.62091,0.08898,1.48403
0.2113,4.25095,0.25396,4.18233,0.18172,0.01086,0.17878,2.88011,1.50736,0.09005,1.48302
0.2124,4.4384,0.25602,4.13641,0.18973,0.01094,0.17682,2.89503,1.59016,0.09172,1.48197
0.21349,4.59175,0.25569,4.09111,0.19629,0.01093,0.17488,2.90992,1.66208,0.09255,1.48086
0.21459,4.18125,0.25758,4.04634,0.17874,0.01101,0.17297,2.92483,1.52904,0.0942,1.47971
0.21568,3.63165,0.25402,4.00213,0.15524,0.01086,0.17108,2.93975,1.34164,0.09384,1.4785
0.21677,4.15125,0.25542,3.95852,0.17746,0.01092,0.16922,2.95464,1.54917,0.09532,1.47725
0.21787,3.71415,0.25365,3.91541,0.15877,0.01084,0.16737,2.96955,1.40008,0.09561,1.47595
0.21896,4.213,0.25386,3.87288,0.1801,0.01085,0.16556,2.98445,1.6041,0.09666,1.4746
0.22005,4.08355,0.25555,3.83084,0.17456,0.01092,0.16376,2.99936,1.57039,0.09827,1.4732
0.22115,3.7498,0.25245,3.78932,0.16029,0.01079,0.16198,3.01428,1.45641,0.09805,1.47176
0.22224,3.69435,0.25387,3.74836,0.15792,0.01085,0.16023,3.02917,1.4491,0.09958,1.47028
0.22334,4.1492,0.25239,3.70786,0.17737,0.01079,0.1585,3.04408,1.64357,0.09998,1.46875
0.22443,3.74845,0.25132,3.66788,0.16024,0.01074,0.15679,3.059,1.49941,0.10053,1.46718
0.22552,3.1713,0.25139,3.62843,0.13557,0.01075,0.15511,3.07389,1.28093,0.10154,1.46557
0.22662,3.81255,0.25247,3.58943,0.16298,0.01079,0.15344,3.0888,1.55492,0.10297,1.46392
0.22771,3.6227,0.25194,3.55096,0.15486,0.01077,0.15179,3.1037,1.49178,0.10375,1.46223
0.2288,3.47595,0.25299,3.51294,0.14859,0.01081,0.15017,3.11861,1.44513,0.10518,1.46051
0.2299,2.96855,0.24969,3.47539,0.1269,0.01067,0.14856,3.13353,1.24601,0.1048,1.45875
0.23099,3.8495,0.2519,3.43835,0.16456,0.01077,0.14698,3.14842,1.63118,0.10674,1.45696
0.23208,3.47875,0.25034,3.40174,0.14871,0.0107,0.14542,3.16333,1.48807,0.10709,1.45513
0.23318,3.0784,0.24823,3.36559,0.13159,0.01061,0.14387,3.17825,1.32926,0.10719,1.45327
0.23427,3.6245,0.251,3.32993,0.15494,0.01073,0.14235,3.19314,1.57978,0.1094,1.45139
0.23536,3.0486,0.2496,3.29469,0.13032,0.01067,0.14084,3.20805,1.3412,0.10981,1.44947
0.23646,3.35015,0.24952,3.25992,0.14321,0.01067,0.13935,3.22295,1.48759,0.11079,1.44752
0.23755,3.2803,0.24859,3.22556,0.14022,0.01063,0.13788,3.23786,1.47008,0.11141,1.44555
0.23865,3.52185,0.25024,3.19163,0.15055,0.0107,0.13643,3.25278,1.5929,0.11318,1.44355
0.23974,3.458,0.24586,3.15815,0.14782,0.01051,0.135,3.26767,1.57839,0.11222,1.44152
0.24083,3.30095,0.25017,3.12507,0.14111,0.01069,0.13359,3.28258,1.52048,0.11523,1.43947
0.24193,2.8695,0.24703,3.09244,0.12266,0.01056,0.13219,3.29748,1.33377,0.11482,1.4374
0.24302,3.5926,0.24779,3.06018,0.15357,0.01059,0.13082,3.31239,1.68501,0.11622,1.4353
0.24411,3.0841,0.24774,3.02833,0.13184,0.01059,0.12945,3.3273,1.45957,0.11724,1.43318
0.24521,3.3969,0.24577,2.99691,0.14521,0.01051,0.12811,3.3422,1.62203,0.11736,1.43104
0.2463,2.86015,0.2465,2.96586,0.12226,0.01054,0.12678,3.35711,1.37794,0.11876,1.42887
0.2474,3.0238,0.2461,2.93519,0.12926,0.01052,0.12547,3.37203,1.46976,0.11962,1.42669
0.24849,3.27285,0.24614,2.90493,0.13991,0.01052,0.12418,3.38692,1.6049,0.1207,1.42448
0.24958,2.8092,0.24624,2.87502,0.12009,0.01053,0.1229,3.40183,1.3897,0.12182,1.42226
0.25067,2.85845,0.24482,2.84551,0.12219,0.01047,0.12164,3.41673,1.42647,0.12217,1.42002
0.25177,3.2236,0.24423,2.81634,0.1378,0.01044,0.12039,3.43164,1.62277,0.12295,1.41775
0.25286,2.99885,0.24681,2.78753,0.12819,0.01055,0.11916,3.44655,1.52278,0.12533,1.41547
0.25396,3.57545,0.24537,2.7591,0.15284,0.01049,0.11794,3.46145,1.8313,0.12568,1.41317
0.25505,2.7697,0.24827,2.731,0.1184,0.01061,0.11674,3.47636,1.43085,0.12826,1.41086
0.25614,2.6661,0.2428,2.70326,0.11397,0.01038,0.11556,3.49126,1.38916,0.12651,1.40852
0.25724,3.1402,0.24196,2.67584,0.13424,0.01034,0.11439,3.50617,1.65019,0.12715,1.40617
0.25833,2.6864,0.27271,2.64875,0.11484,0.01166,0.11323,3.52108,1.42375,0.14453,1.4038
0.25942,2.9671,0.32041,2.62202,0.12684,0.0137,0.11208,3.53598,1.58585,0.17125,1.40141
0.26052,2.72625,0.36264,2.59559,0.11654,0.0155,0.11095,3.55089,1.46944,0.19546,1.39901
0.26161,2.8184,0.32103,2.56948,0.12048,0.01372,0.10984,3.5658,1.53189,0.17449,1.3966
0.26271,2.8863,0.2835,2.54371,0.12338,0.01212,0.10874,3.5807,1.58194,0.15538,1.39417
0.2638,2.93575,0.27059,2.51824,0.1255,0.01157,0.10765,3.59561,1.62247,0.14955,1.39172
0.26489,3.0108,0.26435,2.4931,0.1287,0.0113,0.10657,3.61051,1.67776,0.14731,1.38927
0.26599,2.55135,0.26351,2.46824,0.10906,0.01126,0.10551,3.62542,1.4335,0.14805,1.38681
0.26708,2.87645,0.26025,2.4437,0.12296,0.01112,0.10446,3.64033,1.62948,0.14743,1.38433
0.26817,2.6332,0.25995,2.41947,0.11256,0.01111,0.10343,3.65523,1.50392,0.14847,1.38185
0.26927,2.66985,0.25937,2.39552,0.11413,0.01109,0.1024,3.67014,1.53732,0.14935,1.37936
0.27036,2.3593,0.25416,2.37187,0.10085,0.01086,0.10139,3.68505,1.36956,0.14754,1.37686
0.27145,2.60765,0.25083,2.34853,0.11147,0.01072,0.10039,3.69995,1.52599,0.14679,1.37435
0.27255,2.1714,0.24533,2.32545,0.09282,0.01049,0.09941,3.71486,1.28096,0.14473,1.37184
0.27364,2.6038,0.24773,2.30268,0.11131,0.01059,0.09843,3.72976,1.54839,0.14732,1.36933
0.27474,2.80755,0.24452,2.28017,0.12002,0.01045,0.09747,3.74467,1.68293,0.14657,1.3668
0.27583,2.48295,0.2458,2.25793,0.10614,0.01051,0.09652,3.75958,1.50023,0.14852,1.36427
0.27692,2.10505,0.24728,2.23599,0.08999,0.01057,0.09558,3.77448,1.282,0.1506,1.36175
0.27802,2.8342,0.2453,2.2143,0.12115,0.01049,0.09466,3.78939,1.73973,0.15058,1.35921
0.27911,2.27855,0.24745,2.19289,0.0974,0.01058,0.09374,3.80429,1.40967,0.15309,1.35668
0.2802,2.3149,0.24481,2.17173,0.09896,0.01047,0.09284,3.8192,1.44341,0.15265,1.35414
0.2813,2.11295,0.2474,2.15082,0.09032,0.01058,0.09194,3.83411,1.32779,0.15547,1.35159
0.28239,2.3691,0.24644,2.13019,0.10127,0.01053,0.09106,3.84901,1.50035,0.15607,1.34905
0.28348,2.22975,0.24252,2.1098,0.09532,0.01037,0.09019,3.86392,1.42306,0.15478,1.34651
0.28458,2.613,0.24425,2.08965,0.1117,0.01044,0.08933,3.87883,1.68055,0.15709,1.34396
0.28567,2.1803,0.24183,2.06976,0.0932,0.01034,0.08848,3.89373,1.41306,0.15673,1.34141
0.28676,1.87665,0.24354,2.0501,0.08022,0.01041,0.08764,3.90864,1.22559,0.15905,1.33887
0.28786,2.53695,0.24475,2.03069,0.10845,0.01046,0.08681,3.92354,1.66947,0.16106,1.33632
0.28895,2.03345,0.2444,2.0115,0.08692,0.01045,0.08599,3.93845,1.34833,0.16206,1.33377
0.29005,2.6639,0.24258,1.99253,0.11388,0.01037,0.08518,3.95336,1.77976,0.16207,1.33122
0.29114,2.20465,0.24174,1.97382,0.09424,0.01033,0.08438,3.96826,1.48406,0.16272,1.32867
0.29223,2.51365,0.24075,1.95531,0.10745,0.01029,0.08358,3.98317,1.7048,0.16328,1.32612
0.29333,2.3339,0.24201,1.93703,0.09977,0.01035,0.0828,3.99807,1.59476,0.16536,1.32357
0.29442,2.03585,0.24075,1.91896,0.08703,0.01029,0.08203,4.01298,1.40149,0.16574,1.32102
0.29551,2.45855,0.24181,1.90109,0.1051,0.01034,0.08127,4.02789,1.70508,0.1677,1.31847
0.29661,2.1847,0.23958,1.88346,0.09339,0.01024,0.08051,4.04279,1.52639,0.16739,1.31592
0.2977,2.1606,0.24164,1.86602,0.09236,0.01033,0.07977,4.0577,1.52071,0.17008,1.31337
0.29879,1.93915,0.24003,1.84878,0.08289,0.01026,0.07903,4.07261,1.37489,0.17019,1.31082
0.29989,2.23285,0.24052,1.83177,0.09545,0.01028,0.0783,4.08751,1.59473,0.17178,1.30828
0.30098,2.50975,0.24041,1.81494,0.10729,0.01028,0.07758,4.10242,1.8056,0.17296,1.30573
0.30207,2.25135,0.23858,1.79833,0.09624,0.0102,0.07687,4.11732,1.63149,0.17289,1.3032
0.30317,2.0981,0.23847,1.7819,0.08969,0.01019,0.07617,4.13223,1.53146,0.17407,1.30066
0.30426,2.19115,0.2387,1.76567,0.09367,0.0102,0.07548,4.14714,1.61095,0.17549,1.29813
0.30536,2.15285,0.23933,1.74964,0.09203,0.01023,0.07479,4.16204,1.59418,0.17722,1.2956
0.30645,2.52545,0.23831,1.73379,0.10796,0.01019,0.07412,4.17695,1.88351,0.17773,1.29308
0.30754,2.07215,0.23862,1.71814,0.08858,0.0102,0.07345,4.19185,1.55648,0.17924,1.29057
0.30864,2.24695,0.23777,1.70266,0.09605,0.01016,0.07278,4.20676,1.69981,0.17987,1.28806
0.30973,1.8682,0.23798,1.68737,0.07986,0.01017,0.07213,4.22167,1.42332,0.18131,1.28556
0.31082,1.64685,0.2374,1.67227,0.0704,0.01015,0.07149,4.23657,1.26355,0.18214,1.28306
0.31192,1.9361,0.23657,1.65734,0.08276,0.01011,0.07085,4.25148,1.49596,0.18279,1.28057
0.31301,1.98715,0.23828,1.64259,0.08495,0.01019,0.07022,4.26639,1.54619,0.1854,1.27809
0.31411,1.8799,0.23668,1.62802,0.08036,0.01012,0.06959,4.28129,1.47297,0.18545,1.27562
0.3152,1.9114,0.23749,1.61362,0.08171,0.01015,0.06898,4.2962,1.50811,0.18738,1.27315
0.31629,1.63705,0.23709,1.59939,0.06998,0.01014,0.06837,4.3111,1.30062,0.18837,1.2707
0.31739,2.194,0.23669,1.58532,0.09379,0.01012,0.06777,4.32601,1.75518,0.18935,1.26825
0.31848,2.1777,0.23603,1.57142,0.09309,0.01009,0.06717,4.34092,1.75418,0.19012,1.26581
0.31957,2.0207,0.23677,1.55769,0.08638,0.01012,0.06659,4.35582,1.6389,0.19203,1.26338
0.32067,1.95275,0.23688,1.54411,0.08348,0.01013,0.06601,4.37073,1.59465,0.19344,1.26095
0.32176,2.20405,0.23749,1.53069,0.09422,0.01015,0.06543,4.38564,1.81217,0.19526,1.25853
0.32285,1.94125,0.23406,1.51744,0.08298,0.01001,0.06487,4.40054,1.60696,0.19376,1.25613
0.32395,1.94855,0.23559,1.50433,0.0833,0.01007,0.06431,4.41545,1.62395,0.19634,1.25373
0.32504,2.3608,0.23565,1.49138,0.10092,0.01007,0.06375,4.43035,1.98083,0.19772,1.25134
0.32614,1.94435,0.23449,1.47857,0.08312,0.01002,0.06321,4.44526,1.6424,0.19807,1.24896
0.32723,1.6358,0.23358,1.46591,0.06993,0.00998,0.06266,4.46017,1.39106,0.19863,1.24659
0.32832,2.04295,0.23354,1.45341,0.08733,0.00998,0.06213,4.47507,1.74891,0.19993,1.24422
0.32942,1.89455,0.23168,1.44103,0.08099,0.0099,0.0616,4.48998,1.6327,0.19966,1.24186
0.33051,1.4774,0.23258,1.42881,0.06316,0.00994,0.06108,4.50488,1.28167,0.20177,1.23952
0.3316,1.82935,0.23493,1.41672,0.0782,0.01004,0.06056,4.51979,1.59751,0.20516,1.23717
0.3327,1.7196,0.23513,1.40476,0.07351,0.01005,0.06005,4.5347,1.5116,0.20669,1.23484
0.33379,1.8086,0.23618,1.39294,0.07731,0.0101,0.05954,4.5496,1.60029,0.20897,1.23251
0.33488,1.8445,0.23284,1.38126,0.07885,0.00995,0.05905,4.56451,1.64278,0.20738,1.23019
0.33598,1.75925,0.23297,1.3697,0.0752,0.00996,0.05855,4.57942,1.5771,0.20885,1.22788
0.33707,1.7355,0.23317,1.35828,0.07419,0.00997,0.05806,4.59432,1.56595,0.21039,1.22559
0.33816,1.88035,0.2312,1.34699,0.08038,0.00988,0.05758,4.60923,1.70768,0.20997,1.22329
0.33926,1.7517,0.23257,1.33583,0.07488,0.00994,0.0571,4.62413,1.60114,0.21258,1.22102
0.34035,1.92325,0.23224,1.32479,0.08221,0.00993,0.05663,4.63904,1.76931,0.21365,1.21875
0.34145,1.68385,0.23373,1.31387,0.07198,0.00999,0.05616,4.65395,1.55904,0.21641,1.21648
0.34254,1.79675,0.23269,1.30308,0.07681,0.00995,0.0557,4.66885,1.67424,0.21682,1.21424
0.34363,1.31545,0.23181,1.29241,0.05623,0.00991,0.05525,4.68376,1.2336,0.21739,1.212
0.34473,1.62485,0.23308,1.28187,0.06946,0.00996,0.0548,4.69866,1.53346,0.21997,1.20977
0.34582,1.49675,0.22966,1.27144,0.06398,0.00982,0.05435,4.71357,1.42154,0.21812,1.20755
0.34691,1.66995,0.23229,1.26113,0.07139,0.00993,0.05391,4.72848,1.59609,0.22202,1.20535
0.34801,1.50545,0.22969,1.25094,0.06435,0.00982,0.05347,4.74338,1.44795,0.22092,1.20316
0.3491,1.6179,0.2293,1.24085,0.06916,0.0098,0.05304,4.75829,1.5659,0.22193,1.20097
0.35019,1.4899,0.23273,1.23088,0.06369,0.00995,0.05262,4.7732,1.45107,0.22667,1.1988
0.35129,1.61165,0.22745,1.22103,0.06889,0.00972,0.0522,4.7881,1.57946,0.22291,1.19664
0.35238,1.10985,0.22956,1.21129,0.04744,0.00981,0.05178,4.80301,1.09447,0.22638,1.1945
0.35347,1.5578,0.22975,1.20166,0.06659,0.00982,0.05137,4.81791,1.54575,0.22798,1.19236
0.35457,1.8294,0.23077,1.19212,0.0782,0.00986,0.05096,4.83282,1.8265,0.2304,1.19024
0.35566,1.55575,0.22944,1.1827,0.0665,0.00981,0.05056,4.84773,1.56289,0.23049,1.18812
0.35676,1.85475,0.23078,1.17338,0.07929,0.00987,0.05016,4.86263,1.87473,0.23327,1.18602
0.35785,1.71525,0.23067,1.16417,0.07332,0.00986,0.04977,4.87754,1.74438,0.23458,1.18393
0.35894,1.69025,0.22835,1.15505,0.07225,0.00976,0.04938,4.89245,1.72948,0.23365,1.18185
0.36004,1.67295,0.22912,1.14604,0.07151,0.00979,0.04899,4.90735,1.72222,0.23586,1.17979
0.36113,1.278,0.23046,1.13712,0.05463,0.00985,0.04861,4.92226,1.32364,0.23869,1.17773
0.36222,1.7145,0.23029,1.12831,0.07329,0.00984,0.04823,4.93716,1.7865,0.23996,1.17569
0.36332,1.07405,0.2305,1.11958,0.04591,0.00985,0.04786,4.95207,1.12592,0.24163,1.17365
0.36441,1.60865,0.22987,1.11095,0.06877,0.00983,0.04749,4.96698,1.69651,0.24242,1.17163
0.36551,1.299,0.22727,1.10242,0.05553,0.00972,0.04713,4.98188,1.37818,0.24112,1.16961
0.3666,1.53425,0.22903,1.09397,0.06559,0.00979,0.04676,4.99679,1.63753,0.24444,1.16761
0.36769,1.4492,0.22844,1.08562,0.06195,0.00977,0.04641,5.01169,1.55599,0.24528,1.16561
0.36879,1.9039,0.22956,1.07734,0.08139,0.00981,0.04605,5.0266,2.05638,0.24795,1.16363
0.36988,1.6664,0.22916,1.06916,0.07123,0.0098,0.0457,5.04151,1.81055,0.24899,1.16165
0.37097,1.5133,0.23119,1.06107,0.06469,0.00988,0.04536,5.05641,1.65394,0.25268,1.15969
0.37207,1.37795,0.22959,1.05306,0.0589,0.00981,0.04502,5.07132,1.51491,0.25241,1.15773
0.37316,1.2304,0.23054,1.04514,0.0526,0.00985,0.04468,5.08623,1.36066,0.25495,1.15578
0.37425,1.5162,0.23036,1.0373,0.06481,0.00985,0.04434,5.10113,1.68655,0.25624,1.15385
0.37535,1.6429,0.2279,1.02954,0.07023,0.00974,0.04401,5.11604,1.83819,0.25499,1.15192
0.37644,1.55345,0.22864,1.02187,0.06641,0.00977,0.04368,5.13094,1.74824,0.25731,1.15001
0.37754,1.63965,0.22773,1.01428,0.07009,0.00973,0.04336,5.14585,1.85599,0.25777,1.14811
0.37863,1.527,0.22952,1.00676,0.06528,0.00981,0.04304,5.16076,1.73851,0.26132,1.14621
0.37972,1.6941,0.2287,0.99933,0.07242,0.00978,0.04272,5.17566,1.93991,0.26188,1.14433
0.38082,1.69055,0.22882,0.99197,0.07227,0.00978,0.0424,5.19057,1.94701,0.26353,1.14246
0.38191,1.5401,0.22376,0.9847,0.06584,0.00957,0.04209,5.20547,1.78394,0.25918,1.1406
0.383,1.42705,0.22772,0.97749,0.061,0.00973,0.04179,5.22038,1.66247,0.26528,1.13875
0.3841,1.6442,0.22699,0.97037,0.07029,0.0097,0.04148,5.23529,1.9264,0.26595,1.13691
0.38519,1.2397,0.22673,0.96332,0.05299,0.00969,0.04118,5.25019,1.46075,0.26716,1.13509
0.38628,1.38465,0.22684,0.95633,0.05919,0.0097,0.04088,5.2651,1.64083,0.2688,1.13327
0.38738,1.51865,0.22813,0.94943,0.06492,0.00975,0.04059,5.28001,1.80983,0.27188,1.13147
0.38847,1.14935,0.22638,0.94259,0.04913,0.00968,0.04029,5.29491,1.37746,0.27131,1.12967
0.38956,1.5561,0.22748,0.93583,0.06652,0.00972,0.04,5.30982,1.87546,0.27416,1.12789
0.39066,1.2801,0.22389,0.92914,0.05472,0.00957,0.03972,5.32472,1.55149,0.27136,1.12612
0.39175,1.00655,0.22847,0.92251,0.04303,0.00977,0.03943,5.33963,1.22678,0.27845,1.12435
0.39285,1.12195,0.22468,0.91595,0.04796,0.0096,0.03915,5.35454,1.37508,0.27537,1.1226
0.39394,1.3535,0.27668,0.90946,0.05786,0.01183,0.03888,5.36944,1.66812,0.341,1.12086
0.39503,1.49575,0.34783,0.90303,0.06394,0.01487,0.0386,5.38435,1.85369,0.43107,1.11913
0.39613,1.5513,0.40664,0.89667,0.06631,0.01738,0.03833,5.39926,1.93319,0.50675,1.11741
0.39722,1.512,0.2639,0.89038,0.06463,0.01128,0.03806,5.41416,1.89463,0.33069,1.1157
0.39831,1.0126,0.25091,0.88414,0.04329,0.01073,0.03779,5.42907,1.27585,0.31614,1.114
0.39941,1.23605,0.24688,0.87797,0.05284,0.01055,0.03753,5.44397,1.56595,0.31277,1.1123
0.4005,1.5026,0.24687,0.87186,0.06423,0.01055,0.03727,5.45888,1.91409,0.31447,1.11062
0.40159,1.42155,0.23639,0.86581,0.06077,0.01011,0.03701,5.47379,1.82075,0.30278,1.10894
0.40269,1.07815,0.23103,0.85982,0.04609,0.00988,0.03676,5.48869,1.38844,0.29753,1.10728
0.40378,1.42015,0.22633,0.85389,0.06071,0.00967,0.0365,5.5036,1.83882,0.29305,1.10562
0.40487,1.25435,0.22828,0.84802,0.05362,0.00976,0.03625,5.5185,1.63294,0.29718,1.10397
0.40597,1.22815,0.22536,0.8422,0.0525,0.00963,0.036,5.53341,1.60749,0.29497,1.10233
0.40706,1.38585,0.22516,0.83643,0.05924,0.00962,0.03576,5.54832,1.82369,0.29629,1.10069
0.40816,1.3519,0.22626,0.83073,0.05779,0.00967,0.03551,5.56322,1.78858,0.29935,1.09907
0.40925,1.439,0.22683,0.82508,0.06151,0.0097,0.03527,5.57813,1.91403,0.30171,1.09745
0.41034,1.28225,0.22622,0.81948,0.05481,0.00967,0.03503,5.59304,1.71467,0.30251,1.09584
0.41144,1.32105,0.22635,0.81394,0.05647,0.00968,0.03479,5.60794,1.77597,0.3043,1.09424
0.41253,1.42725,0.22246,0.80845,0.06101,0.00951,0.03456,5.62285,1.92896,0.30067,1.09265
0.41362,1.41865,0.22569,0.80302,0.06064,0.00965,0.03433,5.63775,1.92751,0.30664,1.09106
0.41472,1.2242,0.22505,0.79764,0.05233,0.00962,0.0341,5.65266,1.67213,0.3074,1.08949
0.41581,1.47285,0.225,0.7923,0.06296,0.00962,0.03387,5.66757,2.02238,0.30895,1.08792
0.41691,1.176,0.22361,0.78703,0.05027,0.00956,0.03364,5.68247,1.62328,0.30866,1.08636
0.418,1.095,0.22415,0.7818,0.04681,0.00958,0.03342,5.69738,1.51941,0.31103,1.08481
0.41909,1.5166,0.22327,0.77662,0.06483,0.00954,0.0332,5.71228,2.11544,0.31143,1.08327
0.42019,1.42455,0.22363,0.77149,0.0609,0.00956,0.03298,5.72719,1.99743,0.31356,1.08174
0.42128,1.25295,0.22247,0.7664,0.05356,0.00951,0.03276,5.7421,1.76598,0.31357,1.08022
0.42237,1.2545,0.22321,0.76137,0.05363,0.00954,0.03255,5.757,1.77735,0.31624,1.0787
0.42347,1.5747,0.22472,0.75639,0.06731,0.00961,0.03233,5.77191,2.24258,0.32003,1.07719
0.42456,1.15225,0.22334,0.75145,0.04926,0.00955,0.03212,5.78682,1.64944,0.31971,1.0757
0.42565,1.4286,0.22213,0.74656,0.06107,0.0095,0.03191,5.80172,2.05558,0.31962,1.07421
0.42675,1.52655,0.22184,0.74171,0.06526,0.00948,0.03171,5.81663,2.20783,0.32084,1.07272
0.42784,1.51335,0.22332,0.73691,0.06469,0.00955,0.0315,5.83153,2.19996,0.32464,1.07125
0.42894,1.50475,0.22166,0.73216,0.06432,0.00948,0.0313,5.84644,2.19866,0.32387,1.06979
0.43003,1.3198,0.22064,0.72744,0.05642,0.00943,0.0311,5.86135,1.93827,0.32404,1.06833
0.43112,0.75675,0.22029,0.72278,0.03235,0.00942,0.0309,5.87625,1.11703,0.32517,1.06688
0.43222,1.46715,0.22118,0.71815,0.06272,0.00945,0.0307,5.89116,2.17664,0.32813,1.06544
0.43331,1.61935,0.22192,0.71357,0.06922,0.00949,0.0305,5.90607,2.41462,0.3309,1.064
0.4344,1.1044,0.22256,0.70903,0.04721,0.00951,0.03031,5.92097,1.65509,0.33353,1.06258
0.4355,1.39185,0.21952,0.70453,0.0595,0.00938,0.03012,5.93588,2.0964,0.33065,1.06115
0.43659,1.38,0.21943,0.70007,0.05899,0.00938,0.02993,5.95078,2.08899,0.33217,1.05974
0.43768,1.4683,0.21964,0.69565,0.06277,0.00939,0.02974,5.96569,2.23381,0.33415,1.05834
0.43878,1.08255,0.21843,0.69127,0.04628,0.00934,0.02955,5.9806,1.65519,0.33398,1.05694
0.43987,1.37535,0.21713,0.68693,0.05879,0.00928,0.02936,5.9955,2.11337,0.33363,1.05554
0.44096,1.282,0.22043,0.68263,0.0548,0.00942,0.02918,6.01041,1.97973,0.34039,1.05416
0.44206,1.4124,0.21941,0.67837,0.06038,0.00938,0.029,6.02531,2.19193,0.34051,1.05277
0.44315,1.22395,0.21682,0.67414,0.05232,0.00927,0.02882,6.04022,1.90888,0.33816,1.0514
0.44425,1.298,0.21919,0.66995,0.05549,0.00937,0.02864,6.05513,2.03438,0.34354,1.05003
0.44534,1.4291,0.21946,0.6658,0.06109,0.00938,0.02846,6.07003,2.25089,0.34566,1.04867
0.44643,1.3687,0.21878,0.66169,0.05851,0.00935,0.02829,6.08494,2.16636,0.34628,1.04731
0.44753,1.19205,0.21645,0.65761,0.05096,0.00925,0.02811,6.09985,1.89602,0.34428,1.04596
0.44862,1.16585,0.21748,0.65356,0.04984,0.0093,0.02794,6.11475,1.86342,0.3476,1.04462
0.44971,1.2985,0.21868,0.64956,0.05551,0.00935,0.02777,6.12966,2.08557,0.35122,1.04328
0.45081,1.2105,0.21832,0.64559,0.05175,0.00933,0.0276,6.14456,1.95369,0.35236,1.04195
0.4519,1.12225,0.21727,0.64165,0.04797,0.00929,0.02743,6.15947,1.82006,0.35237,1.04062
0.45299,0.90295,0.21748,0.63774,0.0386,0.0093,0.02726,6.17438,1.4715,0.35442,1.0393
0.45409,1.2227,0.21713,0.63388,0.05227,0.00928,0.0271,6.18928,2.00221,0.35556,1.03799
0.45518,1.1716,0.21804,0.63004,0.05008,0.00932,0.02693,6.20419,1.92779,0.35878,1.03669
0.45627,1.0948,0.21926,0.62624,0.0468,0.00937,0.02677,6.21909,1.81008,0.36251,1.03539
0.45737,1.17655,0.21596,0.62247,0.05029,0.00923,0.02661,6.234,1.95458,0.35876,1.0341
0.45846,1.31595,0.21738,0.61873,0.05625,0.00929,0.02645,6.24891,2.19664,0.36286,1.03281
0.45956,1.15495,0.21808,0.61503,0.04937,0.00932,0.02629,6.26381,1.93709,0.36577,1.03153
0.46065,1.1857,0.21804,0.61136,0.05069,0.00932,0.02613,6.27872,1.99815,0.36744,1.03026
0.46174,1.1582,0.2173,0.60772,0.04951,0.00929,0.02598,6.29363,1.96109,0.36794,1.029
0.46284,0.8809,0.21934,0.60411,0.03766,0.00938,0.02582,6.30853,1.49863,0.37314,1.02774
0.46393,1.3118,0.21575,0.60053,0.05608,0.00922,0.02567,6.32344,2.24226,0.36877,1.02648
0.46502,1.5497,0.21632,0.59698,0.06625,0.00925,0.02552,6.33834,2.66139,0.3715,1.02524
0.46612,1.6538,0.2156,0.59347,0.0707,0.00922,0.02537,6.35325,2.85355,0.37201,1.024
0.46721,1.2956,0.2149,0.58998,0.05538,0.00919,0.02522,6.36816,2.246,0.37254,1.02276
0.46831,0.9921,0.21684,0.58652,0.04241,0.00927,0.02507,6.38306,1.72792,0.37767,1.02153
0.4694,1.1628,0.21702,0.58309,0.04971,0.00928,0.02493,6.39797,2.0347,0.37975,1.02031
0.47049,1.45625,0.21492,0.57969,0.06225,0.00919,0.02478,6.41288,2.56008,0.37783,1.01909
0.47159,1.274,0.2154,0.57632,0.05446,0.00921,0.02464,6.42778,2.2501,0.38043,1.01788
0.47268,1.61245,0.21629,0.57298,0.06893,0.00925,0.02449,6.44269,2.86109,0.38378,1.01668
0.47377,1.2357,0.21396,0.56967,0.05282,0.00915,0.02435,6.45759,2.20275,0.3814,1.01548
0.47487,1.22265,0.21439,0.56638,0.05227,0.00916,0.02421,6.4725,2.18956,0.38393,1.01429
0.47596,1.53915,0.21769,0.56312,0.06579,0.00931,0.02407,6.48741,2.76907,0.39165,1.0131
0.47705,0.90875,0.21615,0.55988,0.03885,0.00924,0.02393,6.50231,1.64244,0.39067,1.01192
0.47815,1.02445,0.2165,0.55668,0.04379,0.00925,0.0238,6.51722,1.86006,0.3931,1.01074
0.47924,1.1406,0.21663,0.5535,0.04876,0.00926,0.02366,6.53212,2.08042,0.39512,1.00956
0.48034,1.1194,0.21662,0.55034,0.04785,0.00926,0.02353,6.54703,2.05109,0.39691,1.00839
0.48143,1.1708,0.21586,0.54721,0.05005,0.00923,0.02339,6.56194,2.15505,0.39732,1.00723
0.48252,0.99025,0.21472,0.54411,0.04233,0.00918,0.02326,6.57684,1.83101,0.39703,1.00607
0.48362,0.992,0.21527,0.54103,0.04241,0.0092,0.02313,6.59175,1.84257,0.39986,1.00492
0.48471,1.1581,0.21416,0.53797,0.04951,0.00915,0.023,6.60666,2.16083,0.3996,1.00377
0.4858,1.16545,0.21469,0.53495,0.04982,0.00918,0.02287,6.62156,2.18436,0.40239,1.00263
0.4869,1.3361,0.2152,0.53194,0.05711,0.0092,0.02274,6.63647,2.5155,0.40516,1.00149
0.48799,0.72375,0.21424,0.52896,0.03094,0.00916,0.02261,6.65137,1.36874,0.40517,1.00036
0.48908,1.10235,0.21534,0.52601,0.04712,0.00921,0.02249,6.66628,2.0941,0.40907,0.99924
0.49018,0.98605,0.21517,0.52307,0.04215,0.0092,0.02236,6.68119,1.88156,0.41058,0.99812
0.49127,0.9576,0.21455,0.52017,0.04094,0.00917,0.02224,6.69609,1.83543,0.41122,0.997
0.49236,1.32475,0.21526,0.51728,0.05663,0.0092,0.02211,6.711,2.55046,0.41442,0.99589
0.49346,1.18525,0.21491,0.51442,0.05067,0.00919,0.02199,6.7259,2.29203,0.4156,0.99479
0.49455,1.51315,0.21356,0.51158,0.06468,0.00913,0.02187,6.74081,2.93911,0.41482,0.99369
0.49565,1.3148,0.21343,0.50876,0.0562,0.00912,0.02175,6.75572,2.56515,0.41639,0.99259
0.49674,1.33195,0.21611,0.50597,0.05694,0.00924,0.02163,6.77062,2.61009,0.4235,0.9915
0.49783,1.2273,0.21435,0.5032,0.05246,0.00916,0.02151,6.78553,2.41562,0.42189,0.99042
0.49893,1.067,0.21373,0.50045,0.04561,0.00914,0.02139,6.80044,2.10935,0.42252,0.98934
0.49975,0.8794,0.2154,0.4984,0.03759,0.00921,0.02131,6.81162,1.7442,0.42722,0.98853