File: 2025/starling_2025/figures/experimental_comparison/saxs_scattering/experiment/a1_lcd/mff_out.csv
#File Plotted Below: a1_lcd_clean.dat,,,,,,,,,,
,,,,,,,,,,
    #Fit from 0.01-0.15 with polymer MFF,,,,,,,,,,
#Initial search parameter for I0 = 38.7901,,,,,,,,,,
#Initial search parameter for Rg = 30,,,,,,,,,,
#Initial search parameter for nu = 0.499881,,,,,,,,,,
#BestFit for I0 = 41.92816 +- 0.18153,,,,,,,,,,
#BestFit for I(0)/I0 = 1.00000 +- 0.00433,,,,,,,,,,
#BestFit for Rg = 27.26066 +- 0.16034,,,,,,,,,,
#BestFit for nu = 0.44670 +- 0.00612,,,,,,,,,,
#BestFit reduced chisquared = 0.12745,,,,,,,,,,
#-------------,,,,,,,,,,
#-------------,,,,,,,,,,
,,,,,,,,,,
    #q,I(q),Error,fit,I(q)/I0,Error/I0,fit/I0,qRg,((qRg)^2)I(q)/I0,((qRg)^2)*Error/I0,((qRg)^2)*fit/I0
0.00535,17.605,61.777,41.65937,0.41988,1.4734,0.99359,0.1459,0.00894,0.03136,0.02115
0.00625,34.444,32.54,41.54589,0.8215,0.77609,0.99088,0.17035,0.02384,0.02252,0.02876
0.00715,34.314,22.52,41.41412,0.8184,0.53711,0.98774,0.19481,0.03106,0.02038,0.03749
0.00804,31.269,17.442,41.2646,0.74578,0.416,0.98417,0.21926,0.03585,0.02,0.04732
0.00894,39.867,13.59,41.09785,0.95084,0.32413,0.9802,0.24372,0.05648,0.01925,0.05822
0.00984,43.717,11.097,40.91439,1.04266,0.26467,0.97582,0.26817,0.07498,0.01903,0.07018
0.01073,37.858,9.4598,40.71479,0.90293,0.22562,0.97106,0.29262,0.07731,0.01932,0.08315
0.01163,40.999,8.0559,40.49949,0.97784,0.19214,0.96593,0.31707,0.0983,0.01932,0.09711
0.01253,41.782,6.9595,40.26906,0.99651,0.16599,0.96043,0.34152,0.11623,0.01936,0.11202
0.01343,40.038,6.0752,40.02402,0.95492,0.1449,0.95459,0.36597,0.1279,0.01941,0.12785
0.01432,35.946,5.4497,39.76489,0.85732,0.12998,0.94841,0.39043,0.13068,0.01981,0.14457
0.01522,36.848,4.9361,39.49221,0.87884,0.11773,0.9419,0.41488,0.15127,0.02026,0.16213
0.01612,35.589,4.4284,39.20649,0.84881,0.10562,0.93509,0.43933,0.16383,0.02039,0.18048
0.01701,40.071,4.0006,38.90825,0.95571,0.09542,0.92797,0.46379,0.20557,0.02052,0.1996
0.01791,38.183,3.757,38.59804,0.91068,0.08961,0.92058,0.48824,0.21708,0.02136,0.21944
0.01881,37.002,3.5564,38.27636,0.88251,0.08482,0.9129,0.51269,0.23197,0.0223,0.23996
0.0197,38.451,3.2976,37.94375,0.91707,0.07865,0.90497,0.53714,0.2646,0.02269,0.26111
0.0206,37.302,3.0957,37.60072,0.88966,0.07383,0.89679,0.5616,0.28059,0.02329,0.28284
0.0215,38.466,2.9394,37.24781,0.91743,0.07011,0.88837,0.58605,0.31509,0.02408,0.30512
0.0224,35.481,2.8442,36.88554,0.84623,0.06784,0.87973,0.6105,0.3154,0.02528,0.32789
0.02329,37.938,2.6654,36.51443,0.90483,0.06357,0.87088,0.63496,0.3648,0.02563,0.35111
0.02419,37.085,2.5645,36.13501,0.88449,0.06116,0.86183,0.65941,0.38459,0.0266,0.37474
0.02509,35.535,2.4953,35.7478,0.84752,0.05951,0.8526,0.68386,0.39636,0.02783,0.39873
0.02598,34.438,2.6078,35.35333,0.82136,0.0622,0.84319,0.70831,0.41208,0.0312,0.42303
0.02688,35.882,2.6104,34.95213,0.8558,0.06226,0.83362,0.73277,0.45952,0.03343,0.44761
0.02778,34.393,2.6139,34.54471,0.82028,0.06234,0.8239,0.75722,0.47034,0.03575,0.47241
0.02867,34.735,2.6116,34.1316,0.82844,0.06229,0.81405,0.78167,0.50619,0.03806,0.49739
0.02957,34.532,2.6752,33.71333,0.8236,0.0638,0.80407,0.80612,0.53521,0.04146,0.52252
0.03047,32.959,2.6499,33.29042,0.78608,0.0632,0.79399,0.83058,0.54229,0.0436,0.54774
0.03136,33.217,2.4441,32.86339,0.79224,0.05829,0.7838,0.85503,0.57919,0.04262,0.57302
0.03226,32.611,2.3624,32.43278,0.77778,0.05634,0.77353,0.87948,0.60161,0.04358,0.59832
0.03316,31.988,2.353,31.99911,0.76292,0.05612,0.76319,0.90394,0.62339,0.04586,0.6236
0.03406,31.086,2.3008,31.56289,0.74141,0.05487,0.75279,0.92839,0.63903,0.0473,0.64883
0.03495,29.743,2.3745,31.12466,0.70938,0.05663,0.74233,0.95284,0.64405,0.05142,0.67397
0.03585,31.241,2.3656,30.68494,0.74511,0.05642,0.73185,0.97729,0.71166,0.05389,0.69899
0.03675,31.36,2.3957,30.24426,0.74795,0.05714,0.72134,1.00175,0.75056,0.05734,0.72386
0.03764,29.894,2.3836,29.80309,0.71298,0.05685,0.71081,1.0262,0.75083,0.05987,0.74855
0.03854,28.565,2.3671,29.36176,0.68128,0.05646,0.70029,1.05065,0.75205,0.06232,0.77303
0.03944,27.923,2.3389,28.92054,0.66597,0.05578,0.68976,1.07511,0.76977,0.06448,0.79727
0.04034,28.643,2.368,28.47974,0.68314,0.05648,0.67925,1.09956,0.82594,0.06828,0.82123
0.04123,30.511,2.3682,28.03961,0.7277,0.05648,0.66875,1.12401,0.91937,0.07136,0.8449
0.04213,28.157,2.3473,27.60047,0.67155,0.05598,0.65828,1.14846,0.88576,0.07384,0.86825
0.04303,27.35,2.3249,27.16257,0.65231,0.05545,0.64784,1.17292,0.8974,0.07628,0.89125
0.04392,27.489,2.3327,26.72622,0.65562,0.05564,0.63743,1.19737,0.93996,0.07976,0.91388
0.04482,26.285,2.333,26.29168,0.62691,0.05564,0.62707,1.22182,0.93588,0.08307,0.93611
0.04572,26.485,2.2684,25.85926,0.63168,0.0541,0.61675,1.24628,0.98112,0.08403,0.95794
0.04661,25.493,2.2856,25.42922,0.60802,0.05451,0.6065,1.27073,0.98179,0.08802,0.97934
0.04751,25.475,2.2809,25.00186,0.60759,0.0544,0.5963,1.29518,1.01922,0.09126,1.00029
0.04841,24.435,2.2614,24.57746,0.58278,0.05394,0.58618,1.31963,1.01488,0.09392,1.02079
0.04931,24.069,2.2348,24.1563,0.57405,0.0533,0.57614,1.34409,1.03707,0.09629,1.04083
0.0502,24.437,2.2518,23.73866,0.58283,0.05371,0.56617,1.36854,1.09158,0.10059,1.06039
0.0511,24.796,2.2276,23.32484,0.59139,0.05313,0.5563,1.39299,1.14755,0.10309,1.07947
0.052,21.669,2.2379,22.9151,0.51681,0.05337,0.54653,1.41745,1.03835,0.10724,1.09807
0.05289,22.28,2.1963,22.50975,0.53139,0.05238,0.53686,1.4419,1.10479,0.10891,1.11618
0.05379,22.878,2.166,22.10905,0.54565,0.05166,0.52731,1.46635,1.17324,0.11108,1.13381
0.05469,22.115,2.1909,21.7133,0.52745,0.05225,0.51787,1.4908,1.17225,0.11613,1.15096
0.05558,21.037,2.1961,21.32277,0.50174,0.05238,0.50855,1.51526,1.15199,0.12026,1.16764
0.05648,20.977,2.1621,20.93758,0.50031,0.05157,0.49937,1.53971,1.18608,0.12225,1.18385
0.05738,19.731,2.1299,20.55773,0.47059,0.0508,0.49031,1.56416,1.15135,0.12428,1.19959
0.05828,20.684,2.1183,20.18323,0.49332,0.05052,0.48138,1.58861,1.24499,0.1275,1.21485
0.05917,19.642,2.1251,19.81406,0.46847,0.05068,0.47257,1.61307,1.21895,0.13188,1.22963
0.06007,20.477,2.0762,19.45023,0.48838,0.04952,0.46389,1.63752,1.30959,0.13278,1.24392
0.06097,19.335,2.0963,19.09173,0.46115,0.05,0.45534,1.66197,1.27376,0.1381,1.25773
0.06186,19.493,2.0834,18.73856,0.46491,0.04969,0.44692,1.68643,1.32223,0.14132,1.27106
0.06276,18.828,2.0909,18.39073,0.44905,0.04987,0.43862,1.71088,1.31443,0.14597,1.2839
0.06366,18.238,2.067,18.04784,0.43498,0.0493,0.43045,1.73536,1.30994,0.14846,1.29628
0.06456,18.697,2.0351,17.71066,0.44593,0.04854,0.4224,1.75981,1.38102,0.15032,1.30816
0.06545,16.901,2.0442,17.37917,0.40309,0.04875,0.4145,1.78424,1.28325,0.15521,1.31956
0.06635,17.008,2.0514,17.05227,0.40565,0.04893,0.4067,1.80872,1.32705,0.16006,1.33051
0.06724,16.238,2.0347,16.7314,0.38728,0.04853,0.39905,1.83314,1.30143,0.16307,1.34097
0.06814,17.252,2.0066,16.41549,0.41147,0.04786,0.39151,1.8576,1.41983,0.16514,1.35098
0.06904,16.981,2.0124,16.10456,0.405,0.048,0.3841,1.88208,1.4346,0.17001,1.36056
0.06994,15.831,1.9999,15.79961,0.37757,0.0477,0.37683,1.9065,1.37239,0.17337,1.36967
0.07083,15.375,1.9839,15.49964,0.3667,0.04732,0.36967,1.93095,1.36727,0.17642,1.37835
0.07173,15.133,1.9838,15.20465,0.36093,0.04731,0.36264,1.95543,1.38008,0.18092,1.38662
0.07263,14.253,1.979,14.91561,0.33994,0.0472,0.35574,1.97986,1.33251,0.18502,1.39445
0.07352,15.056,1.9754,14.63123,0.35909,0.04711,0.34896,2.00434,1.4426,0.18927,1.4019
0.07442,12.921,1.9667,14.35246,0.30817,0.04691,0.34231,2.02879,1.26843,0.19307,1.40895
0.07532,14.776,1.9383,14.0792,0.35241,0.04623,0.33579,2.05322,1.48567,0.19489,1.41561
0.07622,14.44,1.9314,13.8105,0.3444,0.04606,0.32938,2.0777,1.48671,0.19885,1.4219
0.07711,12.773,1.9351,13.54717,0.30464,0.04615,0.3231,2.10215,1.34622,0.20395,1.42781
0.07801,12.601,1.9497,13.28914,0.30054,0.0465,0.31695,2.12658,1.35913,0.21029,1.43335
0.07891,13.135,1.8991,13.03547,0.31327,0.04529,0.3109,2.15106,1.44953,0.20958,1.43855
0.0798,12.629,1.9119,12.78723,0.30121,0.0456,0.30498,2.17548,1.42552,0.21581,1.44338
0.0807,11.277,1.9216,12.54351,0.26896,0.04583,0.29917,2.19993,1.30169,0.22181,1.44788
0.0816,12.347,1.9088,12.30425,0.29448,0.04553,0.29346,2.22441,1.45709,0.22526,1.45205
0.08249,10.835,1.8834,12.06991,0.25842,0.04492,0.28787,2.24887,1.30693,0.22718,1.45588
0.08339,12.064,1.8712,11.84015,0.28773,0.04463,0.28239,2.27332,1.48699,0.23064,1.4594
0.08429,11.183,1.8813,11.61491,0.26672,0.04487,0.27702,2.29777,1.40821,0.2369,1.4626
0.08519,10.785,1.8779,11.39411,0.25723,0.04479,0.27175,2.32223,1.38715,0.24153,1.46549
0.08608,10.853,1.8585,11.17769,0.25885,0.04433,0.26659,2.34668,1.42545,0.2441,1.46809
0.08698,10.713,1.8478,10.96557,0.25551,0.04407,0.26153,2.37113,1.43654,0.24778,1.4704
0.08788,10.668,1.8517,10.75767,0.25444,0.04416,0.25657,2.39558,1.46016,0.25345,1.47243
0.08877,10.079,1.8555,10.55394,0.24039,0.04425,0.25171,2.42004,1.40785,0.25918,1.47419
0.08967,9.0926,1.9364,10.3543,0.21686,0.04618,0.24695,2.44449,1.29586,0.27597,1.47568
0.09057,9.767,2.0014,10.15868,0.23295,0.04773,0.24229,2.46894,1.41996,0.29097,1.47691
0.09147,8.7423,2.0583,9.967,0.20851,0.04909,0.23772,2.4934,1.29629,0.3052,1.47789
0.09236,10.92,2.1063,9.77921,0.26045,0.05024,0.23324,2.51785,1.65111,0.31847,1.47862
0.09326,9.7994,2.1032,9.59522,0.23372,0.05016,0.22885,2.5423,1.51059,0.32421,1.47912
0.09416,10.194,2.0601,9.41498,0.24313,0.04913,0.22455,2.56675,1.6018,0.32371,1.47939
0.09505,8.8968,1.9675,9.23843,0.21219,0.04693,0.22034,2.59121,1.42473,0.31507,1.47944
0.09595,8.6905,1.9178,9.06549,0.20727,0.04574,0.21621,2.61566,1.41808,0.31294,1.47927
0.09685,9.6962,1.8426,8.89611,0.23126,0.04395,0.21218,2.64011,1.61191,0.30632,1.4789
0.09774,9.8719,1.8238,8.73022,0.23545,0.0435,0.20822,2.66457,1.67166,0.30883,1.47833
0.09864,8.2189,1.8389,8.56775,0.19602,0.04386,0.20434,2.68902,1.41741,0.31713,1.47757
0.09954,8.7182,1.8311,8.40864,0.20793,0.04367,0.20055,2.71347,1.53099,0.32156,1.47663
0.10043,7.4323,1.8106,8.25369,0.17726,0.04318,0.19685,2.73779,1.32867,0.32368,1.47551
0.10133,8.4699,1.7939,8.10059,0.20201,0.04279,0.1932,2.76232,1.54142,0.32647,1.47421
0.10223,6.8565,1.7978,7.95068,0.16353,0.04288,0.18963,2.78686,1.27007,0.33302,1.47275
0.10313,7.3665,1.7935,7.80389,0.17569,0.04278,0.18613,2.81139,1.38867,0.33809,1.47112
0.10402,6.9179,1.7786,7.66174,0.16499,0.04242,0.18274,2.83565,1.32671,0.3411,1.46936
0.10492,7.4325,1.762,7.52097,0.17727,0.04202,0.17938,2.86019,1.45017,0.34379,1.46743
0.10582,7.7086,1.7722,7.38314,0.18385,0.04227,0.17609,2.88472,1.52995,0.35173,1.46536
0.10671,7.9414,1.754,7.24964,0.1894,0.04183,0.17291,2.90898,1.60278,0.354,1.46317
0.10761,6.1126,1.7593,7.11744,0.14579,0.04196,0.16975,2.93352,1.25458,0.36109,1.46082
0.10851,7.3713,1.7381,6.98797,0.17581,0.04145,0.16667,2.95805,1.53833,0.36273,1.45833
0.10941,6.696,1.7323,6.86117,0.1597,0.04132,0.16364,2.98259,1.42068,0.36754,1.45572
0.1103,7.7622,1.728,6.73833,0.18513,0.04121,0.16071,3.00685,1.6738,0.37262,1.45302
0.1112,6.9238,1.7276,6.61666,0.16513,0.0412,0.15781,3.03138,1.51747,0.37863,1.45016
0.1121,6.5224,1.7076,6.49748,0.15556,0.04073,0.15497,3.05592,1.45273,0.38033,1.44718
0.11299,6.1762,1.7119,6.38204,0.1473,0.04083,0.15221,3.08018,1.39755,0.38737,1.44413
0.11389,5.5297,1.7106,6.2677,0.13189,0.0408,0.14949,3.10472,1.27128,0.39327,1.44094
0.11479,5.984,1.713,6.15573,0.14272,0.04086,0.14682,3.12925,1.39755,0.40007,1.43766
0.11568,6.2704,1.6855,6.04729,0.14955,0.0402,0.14423,3.15351,1.48723,0.39977,1.43431
0.11658,5.3898,1.6909,5.9399,0.12855,0.04033,0.14167,3.17805,1.29834,0.40732,1.43085
0.11748,5.2044,1.6868,5.83474,0.12413,0.04023,0.13916,3.20258,1.27311,0.41263,1.4273
0.11837,4.7529,1.6906,5.7329,0.11336,0.04032,0.13673,3.22684,1.18034,0.41985,1.42372
0.11927,4.1331,1.6694,5.63205,0.09858,0.03982,0.13433,3.25138,1.04209,0.42091,1.42002
0.12017,4.9559,1.6678,5.5333,0.1182,0.03978,0.13197,3.27591,1.26847,0.42688,1.41626
0.12107,5.6596,1.6654,5.4366,0.13498,0.03972,0.12966,3.30045,1.47037,0.43267,1.41243
0.12196,6.1812,1.6535,5.34296,0.14742,0.03944,0.12743,3.32471,1.62958,0.43592,1.40859
0.12286,5.7429,1.7471,5.25022,0.13697,0.04167,0.12522,3.34924,1.53645,0.46742,1.40464
0.12376,4.8013,1.7984,5.1594,0.11451,0.04289,0.12305,3.37378,1.30343,0.48822,1.40064
0.12465,4.6134,1.7524,5.07144,0.11003,0.0418,0.12096,3.39804,1.27049,0.4826,1.39663
0.12555,5.7626,1.7019,4.98431,0.13744,0.04059,0.11888,3.42258,1.60997,0.47548,1.39253
0.12645,6.1703,1.6628,4.89897,0.14716,0.03966,0.11684,3.44711,1.74868,0.47124,1.38838
0.12735,4.7704,1.6678,4.81537,0.11378,0.03978,0.11485,3.47164,1.37126,0.47941,1.38419
0.12824,4.5674,1.6473,4.73438,0.10893,0.03929,0.11292,3.49591,1.33132,0.48016,1.37999
0.12914,4.8649,1.6417,4.65412,0.11603,0.03916,0.111,3.52044,1.43801,0.48527,1.37571
0.13004,5.6154,1.6257,4.57548,0.13393,0.03877,0.10913,3.54498,1.68307,0.48726,1.37138
0.13093,4.2818,1.6274,4.49929,0.10212,0.03881,0.10731,3.56924,1.30098,0.49447,1.36706
0.13183,5.0218,1.6224,4.42379,0.11977,0.03869,0.10551,3.59377,1.54687,0.49975,1.36267
0.13273,3.8597,1.6218,4.34983,0.09206,0.03868,0.10374,3.61831,1.2052,0.50641,1.35824
0.13362,5.2404,1.6007,4.27818,0.12499,0.03818,0.10204,3.64257,1.65834,0.50655,1.35384
0.13452,3.374,1.5976,4.20719,0.08047,0.0381,0.10034,3.6671,1.08215,0.5124,1.34938
0.13542,4.3873,1.594,4.13766,0.10464,0.03802,0.09868,3.69164,1.42603,0.51811,1.34489
0.13631,4.688,1.5966,4.07029,0.11181,0.03808,0.09708,3.7159,1.54387,0.5258,1.34044
0.13721,4.1624,1.5892,4.00355,0.09927,0.0379,0.09549,3.74043,1.38894,0.53029,1.33593
0.13811,3.7772,1.5808,3.93817,0.09009,0.0377,0.09393,3.76497,1.27699,0.53443,1.33141
0.13901,3.9047,1.5694,3.87413,0.09313,0.03743,0.0924,3.7895,1.33735,0.53752,1.32689
0.1399,3.4855,1.5851,3.81209,0.08313,0.03781,0.09092,3.81377,1.20911,0.54987,1.32241
0.1408,3.8336,1.5678,3.75062,0.09143,0.03739,0.08945,3.8383,1.34704,0.55089,1.31788
0.1417,4.2034,1.5511,3.6904,0.10025,0.03699,0.08802,3.86283,1.49592,0.55201,1.31335
0.14259,3.2628,1.5603,3.63204,0.07782,0.03721,0.08663,3.8871,1.17581,0.56228,1.30887
0.14349,3.0003,1.5646,3.57422,0.07156,0.03732,0.08525,3.91163,1.0949,0.57097,1.30434
0.14439,2.893,1.5669,3.51756,0.069,0.03737,0.08389,3.93617,1.06903,0.579,1.29982
0.14528,3.8062,1.5381,3.46264,0.09078,0.03668,0.08259,3.96043,1.42387,0.57539,1.29535
0.14618,4.739,1.5294,3.40821,0.11303,0.03648,0.08129,3.98496,1.79486,0.57925,1.29083
0.14708,4.1793,1.5388,3.35485,0.09968,0.0367,0.08001,4.0095,1.60242,0.59001,1.28631
0.14798,3.8971,1.5394,3.30254,0.09295,0.03672,0.07877,4.03403,1.51257,0.59748,1.2818
0.14887,2.7953,1.5349,3.25183,0.06667,0.03661,0.07756,4.05829,1.09802,0.60292,1.27735
0.14977,3.4244,1.5223,3.20155,0.08167,0.03631,0.07636,4.08283,1.36145,0.60522,1.27285
0.15067,3.2928,1.5209,3.15228,0.07853,0.03627,0.07518,4.10736,1.32491,0.61196,1.26837
0.15156,2.7176,1.5272,3.10451,0.06482,0.03642,0.07404,4.13162,1.10642,0.62177,1.26395
0.15246,3.0846,1.5148,3.05715,0.07357,0.03613,0.07291,4.15616,1.2708,0.62407,1.25949
0.15336,3.7303,1.5901,3.01074,0.08897,0.03792,0.07181,4.18069,1.55502,0.66285,1.25506
0.15426,2.855,1.6407,2.96524,0.06809,0.03913,0.07072,4.20523,1.20415,0.69199,1.25064
0.15515,2.6471,1.6863,2.92114,0.06313,0.04022,0.06967,4.22949,1.12938,0.71946,1.2463
0.15605,3.3399,1.67,2.87742,0.07966,0.03983,0.06863,4.25403,1.44154,0.72079,1.24193
0.15695,1.7596,1.6902,2.83457,0.04197,0.04031,0.06761,4.27856,0.76825,0.73795,1.23759
0.15784,1.8236,1.6381,2.79302,0.04349,0.03907,0.06661,4.30282,0.80525,0.72334,1.23332
0.15874,2.9408,1.5692,2.75183,0.07014,0.03743,0.06563,4.32736,1.31342,0.70084,1.22903
0.15964,2.7169,1.5378,2.71146,0.0648,0.03668,0.06467,4.35189,1.22722,0.69462,1.22476
0.16053,2.4979,1.5259,2.6723,0.05958,0.03639,0.06374,4.37615,1.14092,0.69696,1.22058
0.16143,1.8855,1.5289,2.63348,0.04497,0.03646,0.06281,4.40069,0.87089,0.70618,1.21637
0.16233,2.0848,1.5261,2.59541,0.04972,0.0364,0.0619,4.42522,0.97371,0.71277,1.21219
0.16323,1.7442,1.5187,2.55807,0.0416,0.03622,0.06101,4.44976,0.82369,0.7172,1.20803
0.16412,1.561,1.5016,2.52185,0.03723,0.03581,0.06015,4.47402,0.74523,0.71688,1.20395
0.16502,2.6624,1.4894,2.48592,0.0635,0.03552,0.05929,4.49855,1.28503,0.71887,1.19985
0.16592,2.9211,1.4959,2.45067,0.06967,0.03568,0.05845,4.52309,1.42531,0.72991,1.19577
0.16681,1.8559,1.4868,2.41647,0.04426,0.03546,0.05763,4.54735,0.9153,0.73327,1.19177
0.16771,1.4955,1.4861,2.38253,0.03567,0.03544,0.05682,4.57188,0.74554,0.74085,1.18774
0.16861,2.4582,1.4754,2.34924,0.05863,0.03519,0.05603,4.59642,1.23866,0.74344,1.18375
0.1695,2.1521,1.4759,2.31693,0.05133,0.0352,0.05526,4.62068,1.09589,0.75156,1.17983
0.1704,1.6682,1.4785,2.28488,0.03979,0.03526,0.0545,4.64522,0.85853,0.7609,1.1759
0.1713,2.3202,1.4597,2.25344,0.05534,0.03481,0.05375,4.66975,1.20672,0.75918,1.172
0.17219,2.7255,1.4522,2.22293,0.065,0.03464,0.05302,4.69401,1.43228,0.76315,1.16817
0.17309,2.5802,1.4602,2.19265,0.06154,0.03483,0.0523,4.71855,1.37014,0.7754,1.16434
0.17399,2.0119,1.4548,2.16295,0.04798,0.0347,0.05159,4.74308,1.0795,0.78058,1.16054
0.17489,1.5439,1.4558,2.1338,0.03682,0.03472,0.05089,4.76762,0.83698,0.78922,1.15678
0.17578,2.5964,1.4376,2.10552,0.06192,0.03429,0.05022,4.79188,1.42193,0.78731,1.1531
0.17668,2.8296,1.4389,2.07746,0.06749,0.03432,0.04955,4.81641,1.56555,0.79611,1.14941
0.17758,2.4813,1.4348,2.04991,0.05918,0.03422,0.04889,4.84095,1.38686,0.80195,1.14575
0.17847,3.5305,1.4211,2.02317,0.0842,0.03389,0.04825,4.86521,1.99312,0.80227,1.14217
0.17937,2.4084,1.425,1.99663,0.05744,0.03399,0.04762,4.88974,1.37339,0.81261,1.13858
0.18027,1.977,1.4301,1.97058,0.04715,0.03411,0.047,4.91428,1.13873,0.82372,1.13503
0.18116,2.1244,1.4357,1.94529,0.05067,0.03424,0.0464,4.93854,1.23574,0.83513,1.13155
0.18206,2.3174,1.4147,1.92017,0.05527,0.03374,0.0458,4.96307,1.36143,0.83111,1.12807
0.18296,1.3203,1.4134,1.8955,0.03149,0.03371,0.04521,4.98761,0.78334,0.83858,1.12461
0.18386,1.8413,1.4114,1.87127,0.04392,0.03366,0.04463,5.01214,1.10323,0.84565,1.12119
0.18475,2.4933,1.4149,1.84773,0.05947,0.03375,0.04407,5.03641,1.50838,0.85598,1.11783
0.18565,1.857,1.408,1.82435,0.04429,0.03358,0.04351,5.06094,1.13441,0.86012,1.11446
0.18655,2.6215,1.3917,1.80139,0.06252,0.03319,0.04296,5.08548,1.61699,0.85843,1.11113
0.18744,1.6669,1.4032,1.77907,0.03976,0.03347,0.04243,5.10974,1.03801,0.8738,1.10786
0.18834,2.0537,1.3974,1.75691,0.04898,0.03333,0.0419,5.13427,1.29119,0.87856,1.10459
0.18924,0.77565,1.3954,1.73513,0.0185,0.03328,0.04138,5.15881,0.49233,0.88571,1.10135
0.19013,1.0779,1.3866,1.71398,0.02571,0.03307,0.04088,5.18307,0.69063,0.88842,1.09818
0.19103,2.3208,1.3779,1.69296,0.05535,0.03286,0.04038,5.2076,1.50109,0.89123,1.09501
0.19193,1.4093,1.3912,1.67231,0.03361,0.03318,0.03989,5.23214,0.92014,0.90833,1.09187
0.19283,2.8178,1.3656,1.65202,0.06721,0.03257,0.0394,5.25667,1.85706,0.89999,1.08876
0.19372,1.0936,1.3762,1.6323,0.02608,0.03282,0.03893,5.28093,0.7274,0.91537,1.08572
0.19462,0.96373,1.3776,1.61271,0.02299,0.03286,0.03846,5.30547,0.64699,0.92484,1.08267
0.19552,2.4125,1.3715,1.59345,0.05754,0.03271,0.038,5.33,1.63462,0.92928,1.07966
0.19641,1.8839,1.3609,1.57474,0.04493,0.03246,0.03756,5.35427,1.28811,0.93051,1.07672
0.19731,1.2354,1.3544,1.55613,0.02946,0.0323,0.03711,5.3788,0.85246,0.93457,1.07377
0.19821,0.94763,1.3581,1.53784,0.0226,0.03239,0.03668,5.40333,0.65987,0.94569,1.07085
0.19911,1.3083,1.3602,1.51986,0.0312,0.03244,0.03625,5.42787,0.91931,0.95578,1.06796
0.2,1.7011,1.3469,1.50237,0.04057,0.03212,0.03583,5.45213,1.20603,0.95491,1.06513
0.2009,1.7483,1.345,1.48498,0.0417,0.03208,0.03542,5.47667,1.25067,0.96216,1.0623
0.2018,1.9254,1.3443,1.46787,0.04592,0.03206,0.03501,5.5012,1.38973,0.9703,1.05949
0.20269,1.7538,1.3498,1.45122,0.04183,0.03219,0.03461,5.52546,1.27706,0.98288,1.05673
0.20359,2.2399,1.3403,1.43466,0.05342,0.03197,0.03422,5.55,1.64554,0.98465,1.05397
0.20449,1.6189,1.3362,1.41837,0.03861,0.03187,0.03383,5.57453,1.19986,0.99034,1.05124
0.20538,1.1879,1.3331,1.40252,0.02833,0.03179,0.03345,5.59879,0.8881,0.99666,1.04856
0.20628,1.2785,1.3345,1.38674,0.03049,0.03183,0.03307,5.62333,0.96423,1.00647,1.04587
0.20718,0.51732,1.339,1.37122,0.01234,0.03194,0.0327,5.64786,0.39357,1.01869,1.04321
0.20808,0.62122,1.3311,1.35595,0.01482,0.03175,0.03234,5.6724,0.47673,1.0215,1.04057
0.20897,1.5826,1.3184,1.34109,0.03775,0.03144,0.03199,5.69666,1.22491,1.02043,1.03799
0.20987,0.46257,1.3329,1.32631,0.01103,0.03179,0.03163,5.72119,0.36111,1.04056,1.03541
0.21077,1.8607,1.3219,1.31175,0.04438,0.03153,0.03129,5.74573,1.46508,1.04084,1.03285
0.21166,1.9942,1.3137,1.29759,0.04756,0.03133,0.03095,5.76999,1.58348,1.04314,1.03034
0.21256,1.4243,1.3109,1.28349,0.03397,0.03127,0.03061,5.79452,1.14059,1.04978,1.02783
0.21346,1.718,1.3207,1.26962,0.04097,0.0315,0.03028,5.81906,1.38747,1.06661,1.02535
0.21435,2.1574,1.3064,1.25611,0.05145,0.03116,0.02996,5.84332,1.75689,1.06387,1.02292
0.21525,1.4603,1.3108,1.24266,0.03483,0.03126,0.02964,5.86786,1.19921,1.07644,1.02048
0.21615,0.90267,1.352,1.22941,0.02153,0.03225,0.02932,5.89239,0.74749,1.11958,1.01806
0.21704,1.6782,1.3891,1.21652,0.04003,0.03313,0.02901,5.91665,1.40117,1.15979,1.0157
0.21794,1.6228,1.4082,1.20367,0.0387,0.03359,0.02871,5.94119,1.36617,1.18551,1.01333
0.21884,1.511,1.4195,1.19102,0.03604,0.03386,0.02841,5.96572,1.28258,1.20491,1.01098
0.21974,0.9988,1.4383,1.17856,0.02382,0.0343,0.02811,5.99026,0.8548,1.23093,1.00864
0.22063,0.99815,1.4415,1.16642,0.02381,0.03438,0.02782,6.01452,0.86118,1.24369,1.00636
0.22153,1.007,1.365,1.15432,0.02402,0.03256,0.02753,6.03905,0.87591,1.18731,1.00406
0.22243,1.2113,1.3346,1.1424,0.02889,0.03183,0.02725,6.06359,1.0622,1.17032,1.00178
0.22332,1.3969,1.3178,1.13079,0.03332,0.03143,0.02697,6.08785,1.23477,1.16485,0.99955
0.22422,1.0276,1.3296,1.11921,0.02451,0.03171,0.02669,6.11238,0.91567,1.18478,0.99731
0.22512,0.60072,1.3242,1.10781,0.01433,0.03158,0.02642,6.13692,0.53959,1.18946,0.99508
0.22601,0.75208,1.3175,1.09669,0.01794,0.03142,0.02616,6.16118,0.6809,1.19281,0.99291
0.22691,1.2851,1.3016,1.08562,0.03065,0.03104,0.02589,6.18572,1.17276,1.18782,0.99072
0.22781,0.9936,1.3036,1.0747,0.0237,0.03109,0.02563,6.21025,0.91395,1.1991,0.98856
0.22871,0.41046,1.3096,1.06395,0.00979,0.03123,0.02538,6.23478,0.38055,1.21416,0.98641
0.2296,1.1593,1.2952,1.05346,0.02765,0.03089,0.02513,6.25905,1.08319,1.21017,0.98431
0.2305,0.9592,1.291,1.04301,0.02288,0.03079,0.02488,6.28358,0.90327,1.21572,0.9822
0.2314,0.79046,1.2904,1.03272,0.01885,0.03078,0.02463,6.30812,0.75019,1.22467,0.98011
0.23229,1.1892,1.2872,1.02268,0.02836,0.0307,0.02439,6.33238,1.13732,1.23104,0.97806
0.23319,0.63364,1.2851,1.01267,0.01511,0.03065,0.02415,6.35691,0.6107,1.23858,0.97601
0.23409,1.0342,1.2732,1.0028,0.02467,0.03037,0.02392,6.38145,1.00447,1.2366,0.97397
0.23498,0.6412,1.2749,0.99318,0.01529,0.03041,0.02369,6.40571,0.62751,1.24768,0.97198
0.23588,1.8973,1.2696,0.98359,0.04525,0.03028,0.02346,6.43024,1.87105,1.25203,0.96998
0.23678,0.96091,1.2735,0.97413,0.02292,0.03037,0.02323,6.45478,0.95486,1.26548,0.96799
0.23768,1.1077,1.2648,0.9648,0.02642,0.03017,0.02301,6.47931,1.10911,1.26641,0.96602
0.23857,0.81426,1.2556,0.9557,0.01942,0.02995,0.02279,6.50357,0.82141,1.26663,0.96409
0.23947,0.24496,1.2699,0.94662,0.00584,0.03029,0.02258,6.52811,0.24898,1.29074,0.96216
0.24037,1.0321,1.2603,0.93767,0.02462,0.03006,0.02236,6.55264,1.05694,1.29063,0.96023
0.24126,0.39283,1.2587,0.92893,0.00937,0.03002,0.02216,6.57691,0.40527,1.29855,0.95835
0.24216,0.94986,1.2443,0.92022,0.02265,0.02968,0.02195,6.60144,0.98726,1.29329,0.95645
0.24306,1.3001,1.253,0.91163,0.03101,0.02988,0.02174,6.62597,1.36135,1.31203,0.95458
0.24396,1.1757,1.2524,0.90315,0.02804,0.02987,0.02154,6.65051,1.24023,1.32113,0.95271
0.24485,0.55935,1.2438,0.89487,0.01334,0.02967,0.02134,6.67477,0.59436,1.32165,0.95089
0.24575,1.96,1.2305,0.88662,0.04675,0.02935,0.02115,6.69931,2.09802,1.31715,0.94906
0.24665,1.2861,1.2419,0.87848,0.03067,0.02962,0.02095,6.72384,1.38677,1.33911,0.94724
0.24754,1.0081,1.2424,0.87053,0.02404,0.02963,0.02076,6.7481,1.09487,1.34933,0.94546
0.24844,0.81039,1.2289,0.86261,0.01933,0.02931,0.02057,6.77264,0.88655,1.34439,0.94367
0.24934,0.92946,1.2249,0.85478,0.02217,0.02921,0.02039,6.79717,1.02419,1.34974,0.9419
0.25023,0.94345,1.2337,0.84715,0.0225,0.02942,0.0202,6.82143,1.04704,1.36916,0.94017
0.25113,1.399,1.2236,0.83953,0.03337,0.02918,0.02002,6.84597,1.5638,1.36774,0.93843
0.25203,0.4965,1.2261,0.83201,0.01184,0.02924,0.01984,6.8705,0.55897,1.38038,0.9367
0.25293,0.5952,1.223,0.82459,0.0142,0.02917,0.01967,6.89504,0.67489,1.38674,0.93499
0.25382,0.69836,1.2234,0.81735,0.01666,0.02918,0.01949,6.9193,0.79744,1.39697,0.93331
0.25472,1.1447,1.2249,0.81011,0.0273,0.02921,0.01932,6.94383,1.31639,1.40862,0.93162
0.25562,1.649,1.2137,0.80297,0.03933,0.02895,0.01915,6.96837,1.90975,1.40562,0.92995
0.25651,1.0292,1.2075,0.796,0.02455,0.0288,0.01898,6.99263,1.20026,1.40819,0.9283
0.25741,0.61175,1.2125,0.78904,0.01459,0.02892,0.01882,7.01717,0.71844,1.42397,0.92665
0.25831,1.0078,1.2121,0.78217,0.02404,0.02891,0.01865,7.0417,1.19186,1.43347,0.92502
0.25921,1.0006,1.2134,0.77538,0.02386,0.02894,0.01849,7.06623,1.1916,1.44502,0.92339
0.2601,0.67691,1.2085,0.76875,0.01614,0.02882,0.01834,7.0905,0.81167,1.44909,0.9218
0.261,1.3063,1.1999,0.76213,0.03116,0.02862,0.01818,7.11503,1.57721,1.44875,0.92019
0.2619,0.26435,1.2073,0.7556,0.0063,0.02879,0.01802,7.13957,0.32138,1.46775,0.91861
0.26279,0.64581,1.2083,0.74922,0.0154,0.02882,0.01787,7.16383,0.79048,1.47897,0.91705
0.26369,1.3481,1.1921,0.74284,0.03215,0.02843,0.01772,7.18836,1.66141,1.46915,0.91548
0.26459,1.0585,1.197,0.73655,0.02525,0.02855,0.01757,7.2129,1.31342,1.48528,0.91393
0.26548,1.5584,1.1944,0.7304,0.03717,0.02849,0.01742,7.23716,1.94675,1.49204,0.91241
0.26638,0.49689,1.1976,0.72426,0.01185,0.02856,0.01727,7.26169,0.62493,1.5062,0.91088
0.26728,1.254,1.1881,0.71819,0.02991,0.02834,0.01713,7.28623,1.58781,1.50436,0.90937
0.26817,0.38444,1.1875,0.71227,0.00917,0.02832,0.01699,7.31049,0.49002,1.51363,0.90788
0.26907,0.72145,1.1929,0.70635,0.01721,0.02845,0.01685,7.33502,0.92577,1.53074,0.9064
0.26997,0.81517,1.2128,0.70051,0.01944,0.02893,0.01671,7.35956,1.05304,1.5667,0.90492
0.27087,1.081,1.2408,0.69473,0.02578,0.02959,0.01657,7.38409,1.40577,1.61358,0.90345
0.27176,1.4155,1.2513,0.68909,0.03376,0.02984,0.01644,7.40836,1.85288,1.63794,0.90202
0.27266,0.59689,1.2711,0.68346,0.01424,0.03032,0.0163,7.43289,0.78651,1.6749,0.90058
0.27356,1.1175,1.2802,0.67789,0.02665,0.03053,0.01617,7.45742,1.48224,1.69805,0.89915
0.27445,0.95054,1.28,0.67245,0.02267,0.03053,0.01604,7.48169,1.26901,1.70885,0.89775
0.27535,1.0167,1.273,0.66702,0.02425,0.03036,0.01591,7.50622,1.36625,1.71067,0.89634
0.27625,0.70217,1.2965,0.66165,0.01675,0.03092,0.01578,7.53076,0.94976,1.75365,0.89495
0.27714,-0.33583,1.3093,0.6564,-0.00801,0.03123,0.01566,7.55502,-0.45718,1.7824,0.89358
0.27804,0.70194,1.299,0.65116,0.01674,0.03098,0.01553,7.57955,0.96179,1.77988,0.89221
0.27894,1.4316,1.2971,0.64598,0.03414,0.03094,0.01541,7.60409,1.97429,1.7888,0.89085
0.27984,1.1442,1.3752,0.64086,0.02729,0.0328,0.01528,7.62862,1.58814,1.90876,0.8895
0.28073,-0.06812,1.4378,0.63585,-0.00162,0.03429,0.01517,7.65288,-0.09516,2.00837,0.88818
0.28163,0.57277,1.4477,0.63085,0.01366,0.03453,0.01505,7.67742,0.8052,2.03518,0.88685
0.28253,1.3376,1.4565,0.62591,0.0319,0.03474,0.01493,7.70195,1.89244,2.06066,0.88554
0.28342,1.3092,1.4766,0.62108,0.03122,0.03522,0.01481,7.72622,1.86395,2.10228,0.88425
0.28432,0.99122,1.5038,0.61626,0.02364,0.03587,0.0147,7.75075,1.42021,2.15463,0.88296
0.28522,0.6209,1.503,0.61149,0.01481,0.03585,0.01458,7.77528,0.89526,2.16713,0.88168
0.28612,-0.15577,1.5139,0.60677,-0.00372,0.03611,0.01447,7.79982,-0.22602,2.19665,0.88042
0.28701,0.74301,1.5321,0.60216,0.01772,0.03654,0.01436,7.82408,1.08481,2.23691,0.87918
0.28791,0.90816,1.5508,0.59756,0.02166,0.03699,0.01425,7.84862,1.33427,2.27843,0.87793
0.28881,-0.04312,1.5733,0.59301,-0.00103,0.03752,0.01414,7.87315,-0.06375,2.32596,0.8767
0.2897,-0.02591,1.5785,0.58856,-0.00062,0.03765,0.01404,7.89741,-0.03854,2.34806,0.87549
0.2906,-0.08182,1.5954,0.58411,-0.00195,0.03805,0.01393,7.92195,-0.12247,2.38796,0.87428
0.2915,0.00825,1.6259,0.57971,0.0002,0.03878,0.01383,7.94648,0.01243,2.44871,0.87308
0.29239,0.45301,1.6209,0.57541,0.0108,0.03866,0.01372,7.97074,0.68644,2.45611,0.87191
0.29329,0.45951,1.6218,0.57111,0.01096,0.03868,0.01362,7.99528,0.70058,2.47263,0.87073
0.29419,0.04372,1.6535,0.56686,0.00104,0.03944,0.01352,8.01981,0.06707,2.53645,0.86956
0.29508,-0.00092,1.6754,0.56271,-0.00002,0.03996,0.01342,8.04407,-0.00142,2.58562,0.86842
0.29598,1.3707,1.6801,0.55855,0.03269,0.04007,0.01332,8.06861,2.12831,2.60872,0.86727
0.29688,1.0785,1.679,0.55444,0.02572,0.04004,0.01322,8.09314,1.6848,2.62289,0.86614
0.29778,1.92,1.684,0.55038,0.04579,0.04016,0.01313,8.11768,3.01758,2.64667,0.86501
0.29867,0.59367,1.7268,0.54641,0.01416,0.04118,0.01303,8.14194,0.93863,2.73018,0.86391
0.29957,0.66031,1.7587,0.54244,0.01575,0.04195,0.01294,8.16647,1.0503,2.7974,0.8628
0.30047,0.5114,1.7263,0.53851,0.0122,0.04117,0.01284,8.19101,0.81833,2.76239,0.86171
0.30136,0.72525,1.7442,0.53467,0.0173,0.0416,0.01275,8.21527,1.16742,2.80759,0.86064
0.30226,1.0066,1.7799,0.53083,0.02401,0.04245,0.01266,8.23981,1.62999,2.8822,0.85957
0.30316,0.36028,1.8008,0.52703,0.00859,0.04295,0.01257,8.26434,0.58688,2.93343,0.85851
0.30406,0.63866,1.7858,0.52327,0.01523,0.04259,0.01248,8.28887,1.04654,2.9263,0.85746
0.30495,1.0007,1.8022,0.5196,0.02387,0.04298,0.01239,8.31314,1.64941,2.97048,0.85643
0.30585,1.2787,1.8197,0.51592,0.0305,0.0434,0.0123,8.33767,2.12008,3.01706,0.8554
0.30675,1.4629,1.8282,0.51229,0.03489,0.0436,0.01222,8.36221,2.43978,3.04902,0.85438
0.30764,0.53826,1.8389,0.50873,0.01284,0.04386,0.01213,8.38647,0.90291,3.08468,0.85338
0.30854,0.52691,1.8688,0.50518,0.01257,0.04457,0.01205,8.411,0.88905,3.15321,0.85238
0.30944,0.35878,1.8685,0.50166,0.00856,0.04456,0.01196,8.43554,0.6089,3.17112,0.8514
0.31033,-0.06567,1.8894,0.49822,-0.00157,0.04506,0.01188,8.4598,-0.11209,3.22506,0.85043
0.31123,0.53398,1.8988,0.49478,0.01274,0.04529,0.0118,8.48433,0.91676,3.25993,0.84946
0.31213,0.51678,1.8813,0.49138,0.01233,0.04487,0.01172,8.50887,0.89237,3.2486,0.8485
0.31302,1.6097,1.8998,0.48804,0.03839,0.04531,0.01164,8.53313,2.79548,3.29928,0.84756
0.31392,0.4902,1.9265,0.48471,0.01169,0.04595,0.01156,8.55767,0.85621,3.36491,0.84662
0.31482,0.67797,1.9263,0.48141,0.01617,0.04594,0.01148,8.5822,1.19097,3.38388,0.84569
0.31572,1.131,1.9352,0.47815,0.02697,0.04616,0.0114,8.60673,1.99818,3.41898,0.84477
0.31661,1.2169,1.9621,0.47496,0.02902,0.0468,0.01133,8.631,2.16208,3.48608,0.84386
0.31751,1.5764,1.9846,0.47176,0.0376,0.04733,0.01125,8.65553,2.81675,3.54613,0.84296
0.31841,0.15712,2.0091,0.4686,0.00375,0.04792,0.01118,8.68007,0.28234,3.61029,0.84207
0.3193,2.3573,1.9764,0.46551,0.05622,0.04714,0.0111,8.70433,4.2597,3.57141,0.84119
0.3202,0.66725,2.0354,0.46242,0.01591,0.04854,0.01103,8.72886,1.21255,3.69879,0.84032
0.3211,0.82601,2.0672,0.45936,0.0197,0.0493,0.01096,8.7534,1.5095,3.77772,0.83945
0.32199,2.3458,2.0565,0.45636,0.05595,0.04905,0.01088,8.77766,4.31065,3.77903,0.83861
0.32289,0.65629,2.052,0.45336,0.01565,0.04894,0.01081,8.80219,1.21275,3.79187,0.83776
0.32379,1.6623,2.0907,0.45039,0.03965,0.04986,0.01074,8.82673,3.08889,3.88495,0.83692
0.32469,1.4452,2.1362,0.44746,0.03447,0.05095,0.01067,8.85126,2.70043,3.9916,0.83609
0.32558,0.38042,2.1801,0.44458,0.00907,0.052,0.0106,8.87552,0.71474,4.09599,0.83528
0.32648,1.1019,2.1184,0.4417,0.02628,0.05052,0.01053,8.90006,2.08172,4.0021,0.83447
0.32738,0.91271,2.1368,0.43886,0.02177,0.05096,0.01047,8.92459,1.73382,4.05915,0.83367
0.32827,0.39638,2.2079,0.43607,0.00945,0.05266,0.0104,8.94886,0.75708,4.21705,0.83289
0.32917,-0.33377,2.2564,0.43328,-0.00796,0.05382,0.01033,8.97339,-0.64099,4.33335,0.8321
0.33007,1.2607,2.2056,0.43052,0.03007,0.0526,0.01027,8.99792,2.43439,4.25898,0.83132
0.33097,-0.63888,2.2316,0.42778,-0.01524,0.05322,0.0102,9.02246,-1.2404,4.33272,0.83055
0.33186,-0.11827,2.2807,0.4251,-0.00282,0.0544,0.01014,9.04672,-0.23086,4.45189,0.8298
0.33276,0.45013,2.3292,0.42242,0.01074,0.05555,0.01007,9.07126,0.88342,4.57126,0.82904
0.33366,-0.15857,2.2983,0.41977,-0.00378,0.05482,0.01001,9.09579,-0.31289,4.53505,0.8283
0.33455,0.7328,2.2785,0.41717,0.01748,0.05434,0.00995,9.12005,1.4537,4.51999,0.82757
0.33545,0.61782,2.3662,0.41457,0.01474,0.05643,0.00989,9.14459,1.23221,4.71926,0.82684
0.33635,0.59085,2.4108,0.41199,0.01409,0.0575,0.00983,9.16912,1.18475,4.83405,0.82611
0.33724,1.1484,2.3837,0.40947,0.02739,0.05685,0.00977,9.19338,2.31493,4.80504,0.82541
0.33814,0.9529,2.3824,0.40695,0.02273,0.05682,0.00971,9.21792,1.93111,4.82808,0.8247
0.33904,0.71764,2.469,0.40444,0.01712,0.05889,0.00965,9.24245,1.46209,5.03025,0.824
0.33993,-0.37892,2.5428,0.40199,-0.00904,0.06065,0.00959,9.26671,-0.77606,5.20784,0.82331
0.34083,2.0242,2.4782,0.39954,0.04828,0.05911,0.00953,9.29125,4.16769,5.10245,0.82263
0.34173,0.30354,2.4815,0.39711,0.00724,0.05918,0.00947,9.31578,0.62827,5.13626,0.82195
0.34263,0.07384,2.5807,0.39471,0.00176,0.06155,0.00941,9.34032,0.15363,5.36976,0.82128
0.34352,0.81663,2.6508,0.39235,0.01948,0.06322,0.00936,9.36458,1.70803,5.54431,0.82062
0.34442,0.98119,2.6381,0.38999,0.0234,0.06292,0.0093,9.38912,2.06299,5.5467,0.81997
0.34532,2.2133,2.5729,0.38765,0.05279,0.06136,0.00925,9.41365,4.6779,5.43792,0.81932
0.34621,0.61409,2.6783,0.38536,0.01465,0.06388,0.00919,9.43791,1.3046,5.68991,0.81868
0.34711,-1.4828,2.7237,0.38307,-0.03537,0.06496,0.00914,9.46245,-3.16653,5.81648,0.81804
0.34801,0.14552,2.667,0.3808,0.00347,0.06361,0.00908,9.48698,0.31237,5.72497,0.81741
0.34891,1.6064,2.6228,0.37854,0.03831,0.06255,0.00903,9.51152,3.46615,5.65925,0.81679
0.3498,0.95502,2.7153,0.37634,0.02278,0.06476,0.00898,9.53578,2.07118,5.88877,0.81618
0.3507,1.7046,2.7809,0.37413,0.04066,0.06633,0.00892,9.56031,3.71587,6.06211,0.81556
0.3516,1.7188,2.8149,0.37194,0.04099,0.06714,0.00887,9.58485,3.76608,6.16776,0.81496
0.35249,0.05989,2.7557,0.36979,0.00143,0.06572,0.00882,9.60911,0.13188,6.06865,0.81436
0.35339,1.5874,2.8573,0.36764,0.03786,0.06815,0.00877,9.63364,3.51368,6.32457,0.81377
0.35429,-0.20821,2.9749,0.36551,-0.00497,0.07095,0.00872,9.65818,-0.46322,6.61846,0.81318
0.35518,1.0013,3.0227,0.36343,0.02388,0.07209,0.00867,9.68244,2.23887,6.75863,0.81261
0.35608,1.8178,2.8925,0.36134,0.04336,0.06899,0.00862,9.70697,4.08515,6.50033,0.81203
0.35698,-1.4377,3.0091,0.35926,-0.03429,0.07177,0.00857,9.73151,-3.2473,6.79659,0.81146
0.35787,1.0572,3.1386,0.35724,0.02521,0.07486,0.00852,9.75577,2.3998,7.12448,0.81091
0.35877,0.42975,3.2508,0.3552,0.01025,0.07753,0.00847,9.78031,0.98043,7.41633,0.81035
0.35967,0.99153,3.1203,0.35319,0.02365,0.07442,0.00842,9.80484,2.27343,7.15437,0.8098
0.36057,1.4584,3.1461,0.35119,0.03478,0.07504,0.00838,9.82937,3.36064,7.24967,0.80926
0.36146,-1.3623,3.3721,0.34923,-0.03249,0.08043,0.00833,9.85364,-3.15471,7.80886,0.80873
0.36236,0.08677,3.4892,0.34727,0.00207,0.08322,0.00828,9.87817,0.20193,8.12032,0.8082
0.36326,1.01,3.332,0.34533,0.02409,0.07947,0.00824,9.90271,2.36224,7.79304,0.80767
0.36415,0.96703,3.3146,0.34343,0.02306,0.07905,0.00819,9.92697,2.27283,7.79038,0.80716
0.36505,-0.71022,3.6056,0.34152,-0.01694,0.08599,0.00815,9.9515,-1.67751,8.51626,0.80665
0.36595,-0.06008,3.7922,0.33963,-0.00143,0.09045,0.0081,9.97604,-0.14262,9.00122,0.80614
0.36684,1.933,3.5927,0.33777,0.0461,0.08569,0.00806,10.0003,4.61054,8.56922,0.80565
0.36774,0.46465,3.5625,0.33592,0.01108,0.08497,0.00801,10.02483,1.11372,8.53893,0.80516
0.36864,0.52745,3.9139,0.33408,0.01258,0.09335,0.00797,10.04937,1.27044,9.42717,0.80467
0.36954,1.9678,4.0618,0.33225,0.04693,0.09688,0.00792,10.0739,4.76289,9.83124,0.80419
0.37043,1.5557,4.0209,0.33046,0.0371,0.0959,0.00788,10.09816,3.7836,9.77918,0.80372
0.37133,2.5052,3.8836,0.32867,0.05975,0.09263,0.00784,10.1227,6.12251,9.49121,0.80325
0.37223,-1.3763,4.2935,0.3269,-0.03283,0.1024,0.0078,10.14723,-3.37989,10.54389,0.80279
0.37312,1.1638,4.714,0.32516,0.02776,0.11243,0.00776,10.1715,2.87172,11.63197,0.80233
0.37402,2.104,4.4824,0.32341,0.05018,0.10691,0.00771,10.19603,5.21678,11.11391,0.80188
0.37492,-3.117,4.3898,0.32168,-0.07434,0.1047,0.00767,10.22057,-7.7657,10.93676,0.80144
0.37582,0.82439,5.0263,0.31997,0.01966,0.11988,0.00763,10.2451,2.06376,12.58273,0.801
0.37671,-0.86835,5.4574,0.31829,-0.02071,0.13016,0.00759,10.26936,-2.18412,13.72672,0.80057
0.37761,-0.00371,5.2393,0.3166,-0.00009,0.12496,0.00755,10.2939,-0.00938,13.24119,0.80014
0.37851,0.61868,5.1356,0.31493,0.01476,0.12249,0.00751,10.31843,1.57104,13.04105,0.79971
0.3794,-0.2675,5.9129,0.31329,-0.00638,0.14102,0.00747,10.34269,-0.68247,15.08558,0.7993
0.3803,2.0789,6.6489,0.31165,0.04958,0.15858,0.00743,10.36723,5.32909,17.04391,0.79889
0.3812,-0.32758,6.7333,0.31002,-0.00781,0.16059,0.00739,10.39176,-0.8437,17.34205,0.79848
0.38209,1.3917,6.6927,0.30843,0.03319,0.15962,0.00736,10.41602,3.60117,17.31807,0.79808
0.38299,-1.7876,7.3484,0.30682,-0.04263,0.17526,0.00732,10.44056,-4.64742,19.10445,0.79769
0.38389,-1.2614,8.7758,0.30524,-0.03008,0.20931,0.00728,10.46509,-3.29483,22.92277,0.79729
0.38478,-1.4022,11.077,0.30368,-0.03344,0.26419,0.00724,10.48936,-3.67961,29.06792,0.79691
0.38568,-8.915,11.869,0.30212,-0.21263,0.28308,0.00721,10.51389,-23.50403,31.29213,0.79652
0.38658,4.2479,12.158,0.30057,0.10131,0.28997,0.00717,10.53842,11.25174,32.20384,0.79615