File: 2025/starling_2025/figures/experimental_comparison/saxs_scattering/experiment/eif4f_p150/mff_out.csv
#File Plotted Below: eif4f_p150_clean.dat,,,,,,,,,,
,,,,,,,,,,
    #Fit from 0.01-0.15 with polymer MFF,,,,,,,,,,
#Initial search parameter for I0 = 0.0378363,,,,,,,,,,
#Initial search parameter for Rg = 30,,,,,,,,,,
#Initial search parameter for nu = 0.499881,,,,,,,,,,
#BestFit for I0 = 0.04124 +- 0.00024,,,,,,,,,,
#BestFit for I(0)/I0 = 1.00000 +- 0.00584,,,,,,,,,,
#BestFit for Rg = 51.97975 +- 0.19208,,,,,,,,,,
#BestFit for nu = 0.55265 +- 0.00095,,,,,,,,,,
#BestFit reduced chisquared = 0.61121,,,,,,,,,,
#-------------,,,,,,,,,,
#-------------,,,,,,,,,,
,,,,,,,,,,
    #q,I(q),Error,fit,I(q)/I0,Error/I0,fit/I0,qRg,((qRg)^2)I(q)/I0,((qRg)^2)*Error/I0,((qRg)^2)*fit/I0
0.01033,0.0373,0.00734,0.03741,0.90465,0.17788,0.90725,0.53691,0.26079,0.05128,0.26153
0.01171,0.0382,0.00209,0.03641,0.92649,0.05079,0.88298,0.60863,0.34319,0.01882,0.32708
0.01309,0.03636,0.00174,0.03533,0.88177,0.04223,0.85688,0.68034,0.40813,0.01955,0.39661
0.01447,0.03376,0.0015,0.03419,0.81881,0.03642,0.82924,0.75205,0.4631,0.0206,0.469
0.01585,0.03443,0.00137,0.033,0.835,0.03313,0.80036,0.82376,0.56662,0.02248,0.54312
0.01723,0.03159,0.00124,0.03177,0.7661,0.02999,0.77056,0.89548,0.61432,0.02405,0.61789
0.01861,0.02997,0.00114,0.03052,0.72675,0.02757,0.74013,0.96719,0.67984,0.02579,0.69236
0.01999,0.02827,0.00106,0.02925,0.68547,0.02574,0.70938,1.0389,0.73984,0.02779,0.76565
0.02137,0.02735,0.00102,0.02798,0.66318,0.02475,0.67855,1.11062,0.81801,0.03053,0.83696
0.02275,0.02716,0.00101,0.02671,0.65856,0.02445,0.64783,1.18233,0.9206,0.03418,0.90561
0.02413,0.0252,0.00096,0.02546,0.61121,0.02335,0.61743,1.25404,0.9612,0.03672,0.97098
0.02551,0.02318,0.00092,0.02423,0.56203,0.02237,0.58753,1.32575,0.98784,0.03932,1.03265
0.02688,0.02123,0.00084,0.02302,0.51474,0.02027,0.55832,1.39747,1.00524,0.0396,1.09036
0.02826,0.02238,0.00081,0.02186,0.54279,0.01965,0.53001,1.46918,1.17161,0.04241,1.14403
0.02964,0.02105,0.00077,0.02073,0.51041,0.01858,0.50278,1.54089,1.21188,0.04411,1.19378
0.03102,0.01951,0.00072,0.01966,0.47308,0.01755,0.47671,1.61261,1.23025,0.04565,1.2397
0.0324,0.01726,0.00068,0.01863,0.41859,0.01642,0.45182,1.68432,1.1875,0.04657,1.28179
0.03378,0.0173,0.00066,0.01765,0.41965,0.01611,0.4281,1.75604,1.29406,0.04967,1.32013
0.03516,0.01718,0.00069,0.01672,0.41654,0.01662,0.40556,1.82775,1.39151,0.05552,1.35485
0.03654,0.01651,0.00067,0.01584,0.40026,0.01629,0.3842,1.89946,1.44412,0.05878,1.38617
0.03792,0.01395,0.00064,0.01501,0.33829,0.01554,0.36401,1.97118,1.31443,0.06037,1.41437
0.0393,0.01425,0.00064,0.01423,0.34546,0.01553,0.345,2.04289,1.44176,0.06482,1.43982
0.04068,0.0134,0.00033,0.01349,0.32503,0.00794,0.32714,2.1146,1.45337,0.03549,1.46281
0.04206,0.01274,0.00032,0.0128,0.30895,0.00779,0.31037,2.18632,1.47676,0.03724,1.48355
0.04344,0.0121,0.00031,0.01215,0.29343,0.00761,0.29463,2.25803,1.49613,0.03881,1.50224
0.04482,0.0113,0.0003,0.01154,0.27396,0.00736,0.27988,2.32974,1.48697,0.03996,1.5191
0.0462,0.0111,0.00031,0.01097,0.26917,0.00745,0.26605,2.40145,1.55231,0.04298,1.53431
0.04758,0.01063,0.00031,0.01044,0.25773,0.00744,0.25309,2.47317,1.57644,0.04553,1.54804
0.04896,0.00959,0.00029,0.00994,0.2326,0.00707,0.24094,2.54488,1.5064,0.04578,1.56045
0.05034,0.00989,0.00029,0.00947,0.2399,0.00709,0.22956,2.61659,1.64252,0.04852,1.57171
0.05172,0.00893,0.00028,0.00903,0.2166,0.00676,0.2189,2.6883,1.56539,0.04889,1.58197
0.0531,0.00822,0.00027,0.00861,0.19938,0.0066,0.2089,2.76002,1.51885,0.05024,1.59137
0.05448,0.00824,0.00027,0.00823,0.19985,0.00654,0.19954,2.83173,1.60255,0.05246,1.60003
0.05586,0.00866,0.00029,0.00787,0.20999,0.00705,0.19075,2.90344,1.77018,0.05946,1.60801
0.05724,0.00766,0.00016,0.00753,0.18582,0.00382,0.1825,2.97516,1.64478,0.03383,1.61537
0.05862,0.00707,0.00015,0.00721,0.17146,0.00369,0.17473,3.04687,1.59175,0.03422,1.62209
0.06,0.00698,0.00015,0.0069,0.16922,0.00361,0.16742,3.11859,1.64577,0.03509,1.62824
0.06138,0.00679,0.00014,0.00662,0.16467,0.00351,0.16053,3.1903,1.67598,0.03572,1.63392
0.06276,0.00639,0.00014,0.00635,0.15492,0.00342,0.15405,3.26201,1.64847,0.03634,1.6392
0.06414,0.00601,0.00014,0.0061,0.14571,0.00331,0.14794,3.33373,1.61934,0.03678,1.64415
0.06551,0.00586,0.00013,0.00586,0.14214,0.00326,0.14217,3.40544,1.64838,0.03782,1.6488
0.06689,0.00561,0.00013,0.00564,0.13601,0.0032,0.13673,3.47715,1.64449,0.03865,1.65313
0.06827,0.0056,0.00013,0.00543,0.13575,0.00316,0.13158,3.54887,1.70964,0.03981,1.65713
0.06965,0.00518,0.00013,0.00522,0.12555,0.00307,0.1267,3.62058,1.64575,0.04021,1.66082
0.07103,0.00521,0.00013,0.00503,0.1263,0.00304,0.12208,3.69229,1.72182,0.04151,1.66426
0.07241,0.00488,0.00012,0.00485,0.11829,0.00295,0.1177,3.764,1.67585,0.04186,1.6675
0.07379,0.0047,0.00012,0.00468,0.11392,0.00292,0.11355,3.83572,1.67602,0.04298,1.67056
0.07517,0.00453,0.00012,0.00452,0.10982,0.00286,0.10961,3.90743,1.67679,0.04365,1.67346
0.07655,0.00446,0.00012,0.00437,0.10811,0.00282,0.10586,3.97914,1.71173,0.04471,1.67618
0.07793,0.0043,0.00011,0.00422,0.10416,0.00277,0.1023,4.05085,1.70926,0.04552,1.6787
0.07931,0.00403,0.00011,0.00408,0.09772,0.00268,0.09891,4.12257,1.66077,0.04563,1.68102
0.08069,0.00389,0.00011,0.00395,0.09425,0.00277,0.09568,4.19428,1.65804,0.04873,1.68319
0.08207,0.00367,0.00011,0.00382,0.08895,0.00278,0.0926,4.26599,1.61869,0.05059,1.68524
0.08345,0.00372,0.00012,0.0037,0.09017,0.00282,0.08967,4.33771,1.69668,0.0531,1.68717
0.08483,0.00357,0.00011,0.00358,0.08663,0.0027,0.08687,4.40942,1.68431,0.05257,1.68899
0.08621,0.00352,0.00011,0.00347,0.08534,0.00263,0.0842,4.48114,1.71374,0.05274,1.6907
0.08759,0.00345,0.00011,0.00337,0.08374,0.00259,0.08164,4.55285,1.73589,0.05371,1.69226
0.08897,0.0032,0.0001,0.00327,0.0777,0.0025,0.07919,4.62456,1.66177,0.05348,1.69369
0.09035,0.00307,0.0001,0.00317,0.0745,0.0025,0.07685,4.69628,1.64302,0.05506,1.69501
0.09173,0.00308,0.00011,0.00308,0.07467,0.00258,0.07461,4.76799,1.69756,0.05861,1.69624
0.09311,0.00286,0.0001,0.00299,0.06926,0.00243,0.07247,4.8397,1.62234,0.05681,1.69739
0.09449,0.00285,0.0001,0.0029,0.06918,0.00237,0.07041,4.91142,1.66887,0.05722,1.69846
0.09587,0.00286,0.0001,0.00282,0.06926,0.00238,0.06844,4.98313,1.71984,0.05909,1.69944
0.09725,0.00264,0.00009,0.00274,0.06408,0.0023,0.06654,5.05484,1.63736,0.05875,1.70031
0.09863,0.0025,0.00009,0.00267,0.06072,0.00222,0.06473,5.12656,1.59578,0.05846,1.70108
0.10001,0.00245,0.00009,0.0026,0.05938,0.0022,0.06298,5.19829,1.60453,0.05933,1.70177
0.10139,0.00244,0.00009,0.00253,0.05915,0.00217,0.0613,5.26997,1.64261,0.06035,1.70239
0.10276,0.00253,0.00009,0.00246,0.06137,0.00219,0.05968,5.3417,1.75098,0.06244,1.70294
0.10415,0.0023,0.00009,0.0024,0.05581,0.00213,0.05813,5.41343,1.63565,0.06234,1.70343
0.10552,0.00225,0.00009,0.00234,0.05458,0.0021,0.05663,5.48511,1.64202,0.06316,1.70384
0.1069,0.00233,0.00009,0.00228,0.05647,0.0021,0.05519,5.55684,1.74372,0.06498,1.70417
0.10828,0.0022,0.00009,0.00222,0.05331,0.00207,0.0538,5.62852,1.689,0.06549,1.70441
0.10966,0.00213,0.00008,0.00216,0.05168,0.00204,0.05246,5.70026,1.67912,0.06632,1.70459
0.11104,0.00207,0.00008,0.00211,0.05019,0.00203,0.05117,5.77199,1.67196,0.06754,1.70472
0.11242,0.00207,0.00008,0.00206,0.05025,0.002,0.04992,5.84367,1.71601,0.06835,1.70479
0.1138,0.00209,0.00008,0.00201,0.05056,0.002,0.04872,5.9154,1.76931,0.06992,1.70481
0.11518,0.00187,0.00008,0.00196,0.04546,0.00193,0.04756,5.98713,1.62956,0.0692,1.70478
0.11656,0.00197,0.00008,0.00191,0.04787,0.00195,0.04644,6.05881,1.75709,0.07155,1.70469
0.11794,0.00184,0.00008,0.00187,0.04469,0.00191,0.04535,6.13054,1.6795,0.07168,1.70454
0.11932,0.00193,0.00008,0.00183,0.04679,0.00192,0.04431,6.20228,1.79997,0.07398,1.70435
0.1207,0.00177,0.00008,0.00179,0.04293,0.00187,0.04329,6.27396,1.68977,0.07343,1.70412
0.12208,0.00175,0.00008,0.00174,0.04232,0.00183,0.04231,6.34569,1.70431,0.07387,1.70386
0.12346,0.00171,0.00008,0.00171,0.04138,0.00182,0.04137,6.41737,1.70406,0.07512,1.70357
0.12484,0.0016,0.00007,0.00167,0.03877,0.00179,0.04045,6.4891,1.63257,0.07552,1.70324
0.12622,0.00169,0.00007,0.00163,0.04093,0.00181,0.03956,6.56083,1.7616,0.07787,1.70287
0.1276,0.00161,0.00007,0.0016,0.03898,0.00179,0.0387,6.63251,1.7147,0.07875,1.70247
0.12898,0.0016,0.00007,0.00156,0.03879,0.00178,0.03787,6.70424,1.74343,0.07984,1.70204
0.13036,0.00159,0.00007,0.00153,0.03846,0.00176,0.03706,6.77598,1.76585,0.08074,1.70159
0.13174,0.00149,0.00007,0.0015,0.03617,0.00173,0.03628,6.84766,1.696,0.08133,1.70113
0.13312,0.00145,0.00007,0.00146,0.03506,0.00172,0.03552,6.91939,1.67853,0.08214,1.70066
0.1345,0.00136,0.00007,0.00143,0.03286,0.0017,0.03479,6.99112,1.60624,0.08298,1.70017
0.13588,0.00141,0.00007,0.00141,0.03413,0.0017,0.03407,7.0628,1.70272,0.08456,1.69968
0.13726,0.00137,0.00007,0.00138,0.0332,0.00167,0.03338,7.13453,1.6899,0.08513,1.69917
0.13864,0.00131,0.00007,0.00135,0.03188,0.00171,0.03271,7.20621,1.65543,0.08879,1.69866
0.14002,0.00128,0.00007,0.00132,0.03105,0.00173,0.03206,7.27795,1.64456,0.09144,1.69815
0.1414,0.00129,0.00007,0.0013,0.03121,0.00176,0.03143,7.34968,1.6858,0.09504,1.69764
0.14277,0.00114,0.00007,0.00127,0.02767,0.00172,0.03081,7.42136,1.52411,0.095,1.69713
0.14415,0.00123,0.00007,0.00125,0.0299,0.00168,0.03022,7.49309,1.67871,0.09456,1.69661
0.14553,0.00123,0.00007,0.00122,0.02976,0.00166,0.02964,7.56482,1.70321,0.0948,1.69609
0.14691,0.00115,0.00007,0.0012,0.02786,0.00163,0.02908,7.6365,1.62485,0.09493,1.69556
0.14829,0.00115,0.00007,0.00118,0.028,0.00162,0.02853,7.70823,1.6634,0.09615,1.69502
0.14967,0.00113,0.00007,0.00115,0.02745,0.0016,0.028,7.77997,1.66146,0.09714,1.69449
0.15105,0.00116,0.00007,0.00113,0.02812,0.0016,0.02748,7.85165,1.7338,0.09841,1.69395
0.15243,0.00113,0.00007,0.00111,0.02741,0.00159,0.02697,7.92338,1.72092,0.09965,1.69341
0.15381,0.00113,0.00007,0.00109,0.02745,0.00158,0.02648,7.99506,1.75487,0.10079,1.69287
0.15519,0.00114,0.00006,0.00107,0.02772,0.00157,0.02601,8.06679,1.80359,0.10216,1.69232
0.15657,0.00114,0.00006,0.00105,0.02763,0.00156,0.02554,8.13852,1.83029,0.10351,1.69176
0.15795,0.0011,0.00006,0.00103,0.02664,0.00154,0.02509,8.2102,1.79549,0.1038,1.69119
0.15933,0.001,0.00006,0.00102,0.02426,0.0015,0.02465,8.28193,1.66392,0.10312,1.69063
0.16071,0.00111,0.00006,0.001,0.02693,0.00152,0.02422,8.35367,1.87912,0.10576,1.69007
0.16209,0.00109,0.00006,0.00098,0.0264,0.0015,0.0238,8.42535,1.87426,0.1068,1.6895
0.16347,0.00099,0.00006,0.00096,0.02391,0.00148,0.02339,8.49708,1.72618,0.10659,1.68893
0.16485,0.00092,0.00006,0.00095,0.02222,0.00146,0.02299,8.56881,1.63161,0.10744,1.68836
0.16623,0.00094,0.00006,0.00093,0.02269,0.00146,0.02261,8.64049,1.69425,0.10889,1.68779
0.16761,0.00091,0.00006,0.00092,0.02218,0.00145,0.02223,8.71222,1.68342,0.10993,1.68722
0.16899,0.0009,0.00006,0.0009,0.02185,0.00144,0.02186,8.7839,1.68589,0.11096,1.68665
0.17037,0.00096,0.00006,0.00089,0.0232,0.00145,0.0215,8.85563,1.81962,0.11401,1.68608
0.17175,0.00104,0.00006,0.00087,0.02515,0.00147,0.02115,8.92737,2.0044,0.117,1.68552
0.17313,0.00085,0.00006,0.00086,0.0207,0.00143,0.02081,8.99905,1.67661,0.11551,1.68496
0.17451,0.00095,0.00006,0.00084,0.02312,0.00144,0.02047,9.07078,1.90252,0.11854,1.68441
0.17589,0.00086,0.00006,0.00083,0.02092,0.00141,0.02015,9.14251,1.74848,0.11768,1.68385
0.17727,0.00093,0.00006,0.00082,0.02246,0.00142,0.01983,9.21419,1.90679,0.12023,1.6833
0.17865,0.00081,0.00006,0.0008,0.01965,0.00138,0.01952,9.28592,1.69453,0.11912,1.68275
0.18002,0.00079,0.00006,0.00079,0.0191,0.00137,0.01921,9.35766,1.6728,0.1202,1.6822
0.1814,0.00084,0.00006,0.00078,0.02027,0.00138,0.01891,9.42934,1.80247,0.12247,1.68165
0.18278,0.00075,0.00006,0.00077,0.01809,0.00136,0.01862,9.50107,1.63323,0.12265,1.6811
0.18416,0.00084,0.00006,0.00076,0.02036,0.00138,0.01834,9.57275,1.86567,0.12625,1.68054
0.18554,0.00071,0.00006,0.00074,0.01727,0.00136,0.01806,9.64448,1.60597,0.12615,1.67998
0.18692,0.00079,0.00006,0.00073,0.01918,0.00136,0.01779,9.71621,1.81063,0.1287,1.67942
0.1883,0.00068,0.00006,0.00072,0.01648,0.00134,0.01752,9.78789,1.57876,0.12806,1.67885
0.18968,0.00082,0.00006,0.00071,0.0198,0.00136,0.01726,9.85962,1.92481,0.13253,1.67829
0.19106,0.00075,0.00006,0.0007,0.01827,0.00135,0.01701,9.93136,1.80219,0.13285,1.67773
0.19244,0.00068,0.00005,0.00069,0.01654,0.00133,0.01676,10.00304,1.65494,0.13286,1.67717
0.19382,0.00081,0.00006,0.00068,0.01957,0.00135,0.01652,10.07477,1.98661,0.13656,1.67662
0.1952,0.00067,0.00005,0.00067,0.01636,0.00131,0.01628,10.1465,1.68432,0.13527,1.67607
0.19658,0.00081,0.00006,0.00066,0.01967,0.00135,0.01605,10.21818,2.05371,0.14079,1.67552
0.19796,0.00073,0.00006,0.00065,0.01773,0.00137,0.01582,10.28991,1.87754,0.14536,1.67497
0.19934,0.00064,0.00006,0.00064,0.01556,0.00137,0.0156,10.36159,1.67077,0.14688,1.67443
0.20072,0.00068,0.00006,0.00063,0.01646,0.0014,0.01538,10.43332,1.79147,0.15186,1.67389
0.2021,0.00073,0.00006,0.00063,0.01765,0.00137,0.01516,10.50506,1.94728,0.15095,1.67334
0.20348,0.0007,0.00006,0.00062,0.01688,0.00134,0.01495,10.57674,1.88787,0.15037,1.6728
0.20486,0.00068,0.00005,0.00061,0.01638,0.00133,0.01475,10.64847,1.85705,0.15071,1.67225
0.20624,0.00071,0.00005,0.0006,0.01711,0.00133,0.01455,10.7202,1.96641,0.1528,1.6717
0.20762,0.00066,0.00005,0.00059,0.01594,0.00131,0.01435,10.79188,1.85622,0.153,1.67116
0.209,0.00068,0.00005,0.00058,0.0166,0.00131,0.01416,10.86361,1.95907,0.15443,1.67062
0.21038,0.00058,0.00005,0.00058,0.01409,0.00128,0.01397,10.93534,1.68533,0.15324,1.67009
0.21176,0.00062,0.00005,0.00057,0.01499,0.00129,0.01378,11.00702,1.81663,0.15579,1.66957
0.21314,0.00064,0.00005,0.00056,0.01554,0.00129,0.0136,11.07876,1.90796,0.15781,1.66905
0.21452,0.00061,0.00005,0.00055,0.01472,0.00127,0.01342,11.15044,1.8303,0.15811,1.66855
0.2159,0.00057,0.00005,0.00055,0.01385,0.00126,0.01325,11.22217,1.74481,0.15805,1.66806
0.21728,0.00061,0.00005,0.00054,0.01482,0.00126,0.01307,11.2939,1.88989,0.16034,1.66758
0.21865,0.00052,0.00005,0.00053,0.01263,0.00123,0.01291,11.36558,1.63103,0.15901,1.66713
0.22003,0.00061,0.00005,0.00053,0.01472,0.00125,0.01274,11.43731,1.92543,0.16334,1.66669
0.22141,0.00055,0.00005,0.00052,0.01328,0.00123,0.01258,11.50905,1.75926,0.16278,1.66626
0.22279,0.00054,0.00005,0.00051,0.01314,0.00123,0.01242,11.58073,1.76183,0.1649,1.66586
0.22417,0.00056,0.00005,0.00051,0.01357,0.00123,0.01227,11.65246,1.84269,0.16712,1.66548
0.22555,0.00055,0.00005,0.0005,0.0133,0.00122,0.01211,11.72419,1.82846,0.16834,1.6651
0.22693,0.00052,0.00005,0.00049,0.01268,0.00122,0.01196,11.79587,1.76402,0.16975,1.66474
0.22831,0.0006,0.00005,0.00049,0.0146,0.00124,0.01182,11.8676,2.05645,0.17426,1.66439
0.22969,0.00049,0.00005,0.00048,0.01183,0.00121,0.01167,11.93928,1.68596,0.17281,1.66405
0.23107,0.00051,0.00005,0.00048,0.01231,0.00121,0.01153,12.01101,1.77612,0.175,1.6637
0.23245,0.0005,0.00005,0.00047,0.01224,0.00121,0.01139,12.08275,1.78727,0.17727,1.66335
0.23383,0.00052,0.00005,0.00046,0.0125,0.00121,0.01126,12.15443,1.84655,0.17855,1.66299
0.23521,0.00052,0.00005,0.00046,0.0127,0.00121,0.01112,12.22616,1.89876,0.18072,1.66264
0.23659,0.00047,0.00005,0.00045,0.01139,0.00119,0.01099,12.29789,1.72195,0.18026,1.66227
0.23797,0.00041,0.00005,0.00045,0.00992,0.00117,0.01086,12.36957,1.51729,0.17931,1.66191
0.23935,0.00053,0.00005,0.00044,0.01279,0.00118,0.01073,12.4413,1.98021,0.18339,1.66153
0.24073,0.00047,0.00005,0.00044,0.01131,0.00117,0.01061,12.51303,1.77145,0.18264,1.66116
0.24211,0.00053,0.00005,0.00043,0.01288,0.00118,0.01049,12.58471,2.04005,0.18729,1.66077
0.24349,0.00046,0.00005,0.00043,0.01113,0.00117,0.01037,12.65645,1.78242,0.18736,1.66036
0.24487,0.00051,0.00005,0.00042,0.01246,0.00118,0.01025,12.72818,2.01886,0.19087,1.65992
0.24625,0.0005,0.00005,0.00042,0.01213,0.00117,0.01013,12.79986,1.98679,0.19173,1.65943
0.24763,0.00052,0.00005,0.00041,0.01251,0.00117,0.01001,12.87159,2.07286,0.19423,1.65888
0.24901,0.00045,0.00005,0.00041,0.01083,0.00116,0.0099,12.94327,1.81415,0.19352,1.65826
0.25039,0.00045,0.00005,0.0004,0.01084,0.00116,0.00979,13.015,1.837,0.19597,1.65755
0.25177,0.00046,0.00005,0.0004,0.01117,0.00116,0.00967,13.08673,1.91222,0.19795,1.65674
0.25315,0.00047,0.00005,0.00039,0.01136,0.00115,0.00956,13.15841,1.96647,0.19871,1.65582
0.25453,0.00048,0.00005,0.00039,0.01163,0.00115,0.00945,13.23015,2.03621,0.20129,1.65478
0.2559,0.00043,0.00005,0.00039,0.01047,0.00117,0.00935,13.30188,1.85207,0.20713,1.65361
0.25728,0.00041,0.00005,0.00038,0.00987,0.00119,0.00924,13.37356,1.76609,0.21364,1.65232
0.25866,0.00046,0.00005,0.00038,0.01125,0.00122,0.00913,13.44529,2.03289,0.21982,1.65088
0.26004,0.00049,0.00005,0.00037,0.01184,0.00121,0.00903,13.51702,2.164,0.22133,1.6493
0.26142,0.00049,0.00005,0.00037,0.01183,0.00118,0.00892,13.5887,2.18474,0.21873,1.64755
0.2628,0.00046,0.00005,0.00036,0.01104,0.00117,0.00882,13.66044,2.05935,0.21842,1.64564
0.26418,0.00041,0.00005,0.00036,0.00986,0.00115,0.00872,13.73212,1.86009,0.21749,1.64353
0.26556,0.0004,0.00005,0.00036,0.0098,0.00115,0.00861,13.80385,1.86809,0.21907,1.64123
0.26694,0.00045,0.00005,0.00035,0.01103,0.00115,0.00851,13.87558,2.12289,0.22082,1.63872
0.26832,0.00046,0.00005,0.00035,0.01114,0.00115,0.00841,13.94726,2.16635,0.22352,1.63597
0.2697,0.00041,0.00005,0.00034,0.00987,0.00113,0.00831,14.01899,1.93916,0.22277,1.63298
0.27108,0.00047,0.00005,0.00034,0.01151,0.00115,0.00821,14.09072,2.28524,0.22761,1.62973
0.27246,0.00047,0.00005,0.00033,0.01129,0.00114,0.00811,14.1624,2.26537,0.22808,1.62621
0.27384,0.00049,0.00005,0.00033,0.0119,0.00113,0.00801,14.23414,2.41102,0.22947,1.62241
0.27522,0.00041,0.00005,0.00033,0.00997,0.00111,0.00791,14.30587,2.04144,0.22783,1.61832
0.2766,0.00037,0.00005,0.00032,0.00896,0.0011,0.00781,14.37755,1.8527,0.22745,1.61392
0.27798,0.00037,0.00005,0.00032,0.00894,0.0011,0.00771,14.44928,1.86584,0.22939,1.6092
0.27936,0.00039,0.00005,0.00031,0.00956,0.0011,0.00761,14.52096,2.01527,0.23257,1.60415
0.28074,0.00044,0.00005,0.00031,0.01057,0.00111,0.00751,14.59269,2.25089,0.23663,1.59875
0.28212,0.00037,0.00004,0.00031,0.00885,0.00109,0.00741,14.66442,1.9036,0.23453,1.59299
0.2835,0.00038,0.00005,0.0003,0.00914,0.00109,0.00731,14.7361,1.98538,0.23713,1.58686
0.28488,0.00041,0.00005,0.0003,0.01002,0.0011,0.00721,14.80784,2.19677,0.2402,1.58033
0.28626,0.00043,0.00005,0.00029,0.01037,0.0011,0.00711,14.87957,2.29635,0.24394,1.57339
0.28764,0.0004,0.00005,0.00029,0.00959,0.00109,0.00701,14.95125,2.14385,0.2442,1.56603
0.28902,0.00028,0.00004,0.00028,0.00677,0.00107,0.0069,15.02298,1.52871,0.24094,1.55822
0.2904,0.00039,0.00004,0.00028,0.00938,0.00109,0.0068,15.09471,2.13692,0.24747,1.54994
0.29178,0.00038,0.00004,0.00028,0.00921,0.00108,0.0067,15.16639,2.11936,0.24916,1.54119
0.29315,0.00035,0.00004,0.00027,0.0086,0.00107,0.0066,15.23812,1.99578,0.24942,1.53194
0.29453,0.00034,0.00004,0.00027,0.00827,0.00106,0.00649,15.3098,1.93915,0.24957,1.52216
0.29591,0.00038,0.00004,0.00026,0.00911,0.00107,0.00639,15.38154,2.15548,0.25317,1.51184
0.29729,0.00036,0.00004,0.00026,0.00863,0.00107,0.00629,15.45327,2.06148,0.25437,1.50095
0.29867,0.00036,0.00004,0.00025,0.00863,0.00106,0.00618,15.52495,2.07891,0.25521,1.48947
0.30005,0.00039,0.00004,0.00025,0.00936,0.00107,0.00607,15.59668,2.27646,0.2593,1.47738
0.30143,0.00044,0.00004,0.00025,0.01056,0.00108,0.00597,15.66841,2.59262,0.26393,1.46466
0.30281,0.00033,0.00004,0.00024,0.00805,0.00106,0.00586,15.74009,1.99369,0.26155,1.4513
0.30419,0.00034,0.00004,0.00024,0.00825,0.00105,0.00575,15.81183,2.06359,0.26374,1.43724
0.30557,0.0003,0.00004,0.00023,0.0073,0.00105,0.00564,15.88356,1.8427,0.26398,1.42249
0.30695,0.00035,0.00004,0.00023,0.00858,0.00106,0.00553,15.95524,2.18402,0.26977,1.40702
0.30833,0.00034,0.00004,0.00022,0.00835,0.00105,0.00541,16.02697,2.1454,0.26977,1.3908
0.30971,0.00033,0.00004,0.00022,0.00804,0.00104,0.0053,16.09865,2.08346,0.27049,1.37382
0.31109,0.00031,0.00004,0.00021,0.00762,0.00104,0.00519,16.17038,1.99239,0.27221,1.35602
0.31247,0.00028,0.00004,0.00021,0.00689,0.00103,0.00507,16.24211,1.8167,0.27205,1.33739
0.31385,0.00036,0.00004,0.0002,0.00879,0.00106,0.00495,16.31379,2.33933,0.28288,1.3179
0.31523,0.00037,0.00005,0.0002,0.00895,0.00109,0.00483,16.38553,2.40187,0.29347,1.29751
0.31661,0.00027,0.00004,0.00019,0.00659,0.00108,0.00471,16.45726,1.78499,0.29245,1.27619
0.31799,0.0003,0.00005,0.00019,0.0072,0.0011,0.00459,16.52894,1.96782,0.3017,1.25393
0.31937,0.00024,0.00004,0.00018,0.00594,0.00107,0.00447,16.60067,1.6365,0.294,1.23065
0.32075,0.00034,0.00004,0.00018,0.00831,0.00108,0.00434,16.6724,2.3093,0.29917,1.20636
0.32213,0.00027,0.00004,0.00017,0.00665,0.00106,0.00421,16.74408,1.86432,0.29636,1.18105
0.32351,0.0003,0.00004,0.00017,0.00726,0.00106,0.00408,16.81581,2.052,0.29905,1.15464
0.32489,0.00035,0.00004,0.00016,0.00843,0.00106,0.00395,16.88749,2.40484,0.30252,1.12716
0.32627,0.00041,0.00004,0.00016,0.00984,0.00107,0.00382,16.95923,2.83066,0.30696,1.09853
0.32765,0.00034,0.00004,0.00015,0.00825,0.00105,0.00368,17.03096,2.39375,0.30346,1.06874
0.32903,0.00028,0.00004,0.00015,0.00684,0.00103,0.00355,17.10264,2.00003,0.30213,1.0378
0.33041,0.00029,0.00004,0.00014,0.00714,0.00104,0.00341,17.17437,2.10571,0.30547,1.0056
0.33178,0.00031,0.00004,0.00013,0.00743,0.00103,0.00327,17.2461,2.21108,0.30666,0.97215
0.33316,0.00032,0.00004,0.00013,0.00776,0.00103,0.00313,17.31778,2.32828,0.30906,0.93743
0.33454,0.00035,0.00004,0.00012,0.00848,0.00104,0.00298,17.38951,2.56497,0.31422,0.90135
0.33592,0.00027,0.00004,0.00012,0.00647,0.00102,0.00283,17.46125,1.97228,0.31086,0.86389
0.3373,0.00026,0.00004,0.00011,0.00634,0.00101,0.00268,17.53293,1.9503,0.31179,0.82505
0.33868,0.00032,0.00004,0.0001,0.0078,0.00102,0.00253,17.60466,2.41788,0.31677,0.78473
0.34006,0.00034,0.00004,0.0001,0.00831,0.00102,0.00238,17.67634,2.59497,0.32015,0.74296
0.34144,0.00028,0.00004,0.00009,0.0067,0.00101,0.00222,17.74807,2.10941,0.31842,0.69963
0.34282,0.00032,0.00004,0.00009,0.00778,0.00102,0.00206,17.8198,2.47151,0.32298,0.65474
0.3442,0.00025,0.00004,0.00008,0.00617,0.001,0.0019,17.89148,1.97648,0.32063,0.60828
0.34558,0.00026,0.00004,0.00007,0.00628,0.001,0.00174,17.96322,2.0268,0.32356,0.56016
0.34696,0.00032,0.00004,0.00006,0.00777,0.00101,0.00157,18.03495,2.52784,0.32874,0.51036
0.34834,0.0003,0.00004,0.00006,0.00723,0.00101,0.0014,18.10663,2.3713,0.33111,0.45889
0.34972,0.00028,0.00004,0.00005,0.0067,0.001,0.00123,18.17836,2.21506,0.33125,0.40563
0.3511,0.00026,0.00004,0.00004,0.00627,0.001,0.00105,18.25009,2.08865,0.33296,0.35057
0.35248,0.00026,0.00004,0.00004,0.00641,0.00099,0.00087,18.32177,2.15101,0.33379,0.29371
0.35386,0.00025,0.00004,0.00003,0.00608,0.00099,0.00069,18.3935,2.05638,0.33493,0.23494
0.35524,0.0003,0.00004,0.00002,0.0074,0.001,0.00051,18.46518,2.52155,0.33929,0.1743
0.35662,0.00026,0.00004,0.00001,0.00634,0.00099,0.00032,18.53692,2.17814,0.34021,0.11165
0.358,0.00031,0.00004,0.00001,0.00745,0.001,0.00014,18.60865,2.57866,0.34687,0.04699
0.35938,0.00032,0.00004,0,0.00782,0.00101,-0.00006,18.68033,2.72897,0.35242,-0.01967
0.36076,0.00025,0.00004,-0.00001,0.00604,0.00099,-0.00025,18.75206,2.12519,0.3486,-0.08847
0.36214,0.00032,0.00004,-0.00002,0.00775,0.001,-0.00045,18.82379,2.74491,0.35486,-0.15941
0.36352,0.00034,0.00004,-0.00003,0.00813,0.001,-0.00065,18.89547,2.90111,0.35854,-0.23247
0.3649,0.00026,0.00004,-0.00004,0.00642,0.00099,-0.00086,18.9672,2.30801,0.35747,-0.30782
0.36628,0.00028,0.00004,-0.00004,0.0068,0.001,-0.00106,19.03894,2.46511,0.36194,-0.38543
0.36766,0.00026,0.00004,-0.00005,0.00641,0.001,-0.00127,19.11062,2.34155,0.36362,-0.46531
0.36904,0.0003,0.00004,-0.00006,0.00738,0.001,-0.00149,19.18235,2.71446,0.36979,-0.54762
0.37041,0.00022,0.00004,-0.00007,0.0054,0.00098,-0.00171,19.25403,2.00028,0.36458,-0.63228
0.37179,0.00027,0.00004,-0.00008,0.00645,0.001,-0.00193,19.32576,2.40899,0.37172,-0.71946
0.37317,0.00027,0.00004,-0.00009,0.00647,0.00104,-0.00215,19.39749,2.43405,0.38958,-0.80915
0.37455,0.00024,0.00004,-0.0001,0.00588,0.00105,-0.00238,19.46917,2.22752,0.39612,-0.90135
0.37593,0.00031,0.00004,-0.00011,0.0074,0.00107,-0.00261,19.5409,2.82631,0.41028,-0.99622
0.37731,0.00027,0.00004,-0.00012,0.00654,0.00105,-0.00284,19.61264,2.51438,0.40329,-1.09375
0.37869,0.00025,0.00004,-0.00013,0.00599,0.00103,-0.00308,19.68432,2.32203,0.39775,-1.19393
0.38007,0.00027,0.00004,-0.00014,0.00665,0.00103,-0.00332,19.75605,2.59657,0.40162,-1.29695
0.38145,0.00021,0.00004,-0.00015,0.00521,0.00102,-0.00357,19.82778,2.04974,0.39963,-1.4028
0.38283,0.00022,0.00004,-0.00016,0.00524,0.00101,-0.00382,19.89946,2.07315,0.40039,-1.51144
0.38421,0.00026,0.00004,-0.00017,0.0063,0.00101,-0.00407,19.97119,2.51439,0.40446,-1.62308
0.38559,0.00029,0.00004,-0.00018,0.00697,0.00102,-0.00433,20.04287,2.79992,0.40927,-1.73764
0.38697,0.00025,0.00004,-0.00019,0.00618,0.00101,-0.00459,20.11461,2.50041,0.41026,-1.85531
0.38835,0.00019,0.00004,-0.0002,0.0045,0.001,-0.00485,20.18634,1.83244,0.40613,-1.97608
0.38973,0.00026,0.00004,-0.00021,0.00641,0.00101,-0.00512,20.25802,2.63226,0.41401,-2.09992
0.39111,0.0002,0.00004,-0.00022,0.00474,0.001,-0.00539,20.32975,1.95958,0.41147,-2.22706
0.39249,0.00022,0.00004,-0.00023,0.00536,0.001,-0.00566,20.40148,2.22992,0.41608,-2.35747
0.39387,0.0002,0.00004,-0.00025,0.00475,0.001,-0.00594,20.47316,1.99114,0.41719,-2.49112
0.39525,0.00023,0.00004,-0.00026,0.00552,0.001,-0.00623,20.54489,2.32999,0.42362,-2.62825
0.39663,0.00023,0.00004,-0.00027,0.00551,0.001,-0.00651,20.61663,2.3414,0.42685,-2.76883
0.39801,0.00022,0.00004,-0.00028,0.00535,0.001,-0.00681,20.68831,2.2916,0.42989,-2.91283
0.39939,0.00023,0.00004,-0.00029,0.00559,0.00101,-0.0071,20.76004,2.40917,0.43488,-3.0605
0.40077,0.00023,0.00004,-0.00031,0.00547,0.001,-0.0074,20.83172,2.37532,0.4355,-3.2117
0.40215,0.00028,0.00004,-0.00032,0.0068,0.00102,-0.0077,20.90345,2.96942,0.44598,-3.36671
0.40353,0.00022,0.00004,-0.00033,0.00531,0.00101,-0.00801,20.97518,2.33414,0.44628,-3.52548
0.40491,0.00025,0.00004,-0.00034,0.00611,0.00102,-0.00833,21.04686,2.70471,0.4519,-3.68797
0.40629,0.00023,0.00004,-0.00036,0.00554,0.00102,-0.00864,21.11859,2.46984,0.45383,-3.85448
0.40766,0.00027,0.00004,-0.00037,0.00644,0.00102,-0.00896,21.19033,2.89128,0.4566,-4.02494
0.40904,0.00024,0.00004,-0.00038,0.00588,0.00101,-0.00929,21.26201,2.65805,0.45635,-4.19931
0.41042,0.00025,0.00004,-0.0004,0.00614,0.00101,-0.00962,21.33374,2.79295,0.46141,-4.37791
0.4118,0.0002,0.00004,-0.00041,0.00473,0.001,-0.00995,21.40547,2.16818,0.4594,-4.56067
0.41318,0.00027,0.00004,-0.00042,0.00662,0.00101,-0.01029,21.47715,3.05258,0.46767,-4.74753
0.41456,0.00027,0.00004,-0.00044,0.00644,0.00101,-0.01064,21.54888,2.99229,0.46925,-4.93884
0.41594,0.00019,0.00004,-0.00045,0.00454,0.00099,-0.01098,21.62056,2.12022,0.46275,-5.13438
0.41732,0.00021,0.00004,-0.00047,0.00516,0.001,-0.01134,21.69229,2.42605,0.47251,-5.33451
0.4187,0.00018,0.00004,-0.00048,0.00443,0.001,-0.01169,21.76403,2.10003,0.47387,-5.53917
0.42008,0.00021,0.00004,-0.0005,0.00519,0.00101,-0.01206,21.83571,2.4724,0.47986,-5.74826
0.42146,0.00024,0.00004,-0.00051,0.00589,0.00102,-0.01242,21.90744,2.8273,0.48796,-5.96218
0.42284,0.00025,0.00004,-0.00053,0.00596,0.00101,-0.01279,21.97917,2.87811,0.48974,-6.18085
0.42422,0.00023,0.00004,-0.00054,0.00547,0.00101,-0.01317,22.05085,2.66214,0.49161,-6.40417
0.4256,0.00024,0.00004,-0.00056,0.00577,0.00102,-0.01355,22.12258,2.82421,0.49953,-6.63255
0.42698,0.00019,0.00004,-0.00057,0.00463,0.00101,-0.01394,22.19432,2.28278,0.49686,-6.8659
0.42836,0.00024,0.00004,-0.00059,0.00573,0.00102,-0.01433,22.266,2.839,0.50698,-7.10414
0.42974,0.00023,0.00004,-0.00061,0.00559,0.00102,-0.01473,22.33773,2.78972,0.50791,-7.34768
0.43112,0.00021,0.00004,-0.00062,0.00507,0.00104,-0.01513,22.40941,2.54701,0.52057,-7.59624
0.4325,0.00022,0.00004,-0.00064,0.00535,0.00108,-0.01553,22.48114,2.70334,0.54429,-7.85028
0.43388,0.0002,0.00004,-0.00066,0.00492,0.00109,-0.01594,22.55287,2.50329,0.55427,-8.1097
0.43526,0.0002,0.00005,-0.00067,0.00488,0.0011,-0.01636,22.62455,2.49878,0.56252,-8.37437
0.43664,0.00019,0.00004,-0.00069,0.0046,0.00107,-0.01678,22.69628,2.36975,0.54887,-8.64477
0.43802,0.00023,0.00004,-0.00071,0.00569,0.00107,-0.01721,22.76802,2.94953,0.55352,-8.9208
0.4394,0.00019,0.00004,-0.00073,0.00449,0.00105,-0.01764,22.8397,2.34289,0.54953,-9.20233
0.44078,0.00016,0.00004,-0.00075,0.00385,0.00105,-0.01808,22.91143,2.01841,0.5493,-9.48985
0.44216,0.00025,0.00004,-0.00076,0.00616,0.00107,-0.01852,22.98316,3.25247,0.56258,-9.78325
0.44354,0.00021,0.00004,-0.00078,0.00506,0.00105,-0.01897,23.05484,2.68835,0.55908,-10.0824
0.44492,0.00024,0.00004,-0.0008,0.00588,0.00106,-0.01942,23.12657,3.14303,0.56577,-10.38782
0.44629,0.0002,0.00004,-0.00082,0.00487,0.00104,-0.01988,23.19825,2.62223,0.56128,-10.69915
0.44767,0.00019,0.00004,-0.00084,0.00449,0.00104,-0.02035,23.26998,2.43383,0.56367,-11.01694
0.44905,0.00021,0.00004,-0.00086,0.00508,0.00104,-0.02082,23.34172,2.76618,0.56806,-11.34106
0.45043,0.00021,0.00004,-0.00088,0.00513,0.00104,-0.02129,23.4134,2.81278,0.57185,-11.67135
0.45181,0.00024,0.00004,-0.0009,0.00583,0.00105,-0.02177,23.48513,3.21306,0.57738,-12.00838
0.45319,0.0002,0.00004,-0.00092,0.00489,0.00103,-0.02226,23.55686,2.71375,0.5737,-12.35201
0.45457,0.00021,0.00004,-0.00094,0.00519,0.00104,-0.02275,23.62854,2.89839,0.57982,-12.70209
0.45595,0.00018,0.00004,-0.00096,0.00446,0.00103,-0.02325,23.70027,2.50636,0.57998,-13.0592
0.45733,0.00018,0.00004,-0.00098,0.00441,0.00103,-0.02375,23.772,2.4917,0.5847,-13.4232
0.45871,0.00019,0.00004,-0.001,0.0045,0.00104,-0.02426,23.84368,2.5604,0.58961,-13.79391
0.46009,0.0002,0.00004,-0.00102,0.0048,0.00103,-0.02478,23.91542,2.74698,0.5914,-14.17196
0.46147,0.00019,0.00004,-0.00104,0.00471,0.00104,-0.0253,23.98715,2.71136,0.59835,-14.5572
0.46285,0.00021,0.00004,-0.00107,0.00515,0.00104,-0.02583,24.05883,2.97923,0.60215,-14.94942
0.46423,0.00017,0.00004,-0.00109,0.00408,0.00104,-0.02636,24.13056,2.378,0.60356,-15.34931
0.46561,0.00018,0.00004,-0.00111,0.00443,0.00104,-0.0269,24.20224,2.59767,0.60678,-15.75637
0.46699,0.00017,0.00004,-0.00113,0.00414,0.00103,-0.02745,24.27397,2.43961,0.60728,-16.17131
0.46837,0.00015,0.00004,-0.00115,0.00375,0.00103,-0.028,24.34571,2.22543,0.6098,-16.59394
0.46975,0.00016,0.00004,-0.00118,0.00398,0.00102,-0.02855,24.41739,2.37523,0.61098,-17.02404
0.47113,0.00019,0.00004,-0.0012,0.00469,0.00103,-0.02912,24.48912,2.81564,0.61944,-17.46234
0.47251,0.00018,0.00004,-0.00122,0.00429,0.00104,-0.02969,24.56085,2.58548,0.62443,-17.90864
0.47389,0.00021,0.00004,-0.00125,0.00512,0.00104,-0.03026,24.63253,3.10404,0.6294,-18.36272
0.47527,0.00024,0.00004,-0.00127,0.00582,0.00105,-0.03085,24.70426,3.5508,0.63882,-18.82533
0.47665,0.00025,0.00004,-0.0013,0.00604,0.00105,-0.03143,24.77599,3.70499,0.64453,-19.29627
0.47803,0.00016,0.00004,-0.00132,0.00378,0.00103,-0.03203,24.84767,2.33085,0.63457,-19.77529
0.47941,0.00017,0.00004,-0.00135,0.00414,0.00104,-0.03263,24.91941,2.57085,0.64381,-20.2632
0.48079,0.00022,0.00004,-0.00137,0.00529,0.00104,-0.03324,24.99109,3.30392,0.65153,-20.7594
0.48217,0.00018,0.00004,-0.0014,0.00446,0.00103,-0.03385,25.06282,2.79922,0.64747,-21.26472
0.48355,0.00015,0.00004,-0.00142,0.00371,0.00103,-0.03447,25.13455,2.34218,0.65064,-21.77892
0.48492,0.00019,0.00004,-0.00145,0.0046,0.00104,-0.0351,25.20623,2.92067,0.65861,-22.30173
0.4863,0.00014,0.00004,-0.00147,0.00347,0.00103,-0.03574,25.27796,2.21938,0.65678,-22.83403
0.48768,0.00015,0.00004,-0.0015,0.00374,0.00103,-0.03638,25.34969,2.40391,0.66005,-23.37556
0.48906,0.00014,0.00004,-0.00153,0.00349,0.00104,-0.03702,25.42137,2.25707,0.67003,-23.92603
0.49044,0.00023,0.00005,-0.00155,0.00548,0.0011,-0.03768,25.49311,3.56178,0.71489,-24.48635
0.49182,0.00018,0.00005,-0.00158,0.0043,0.00112,-0.03834,25.56484,2.80717,0.72887,-25.05625
0.4932,0.00011,0.00005,-0.00161,0.0026,0.00112,-0.03901,25.63652,1.70693,0.73415,-25.63544
0.49458,0.00016,0.00005,-0.00164,0.00385,0.0011,-0.03968,25.70825,2.5417,0.72839,-26.22486
0.49596,0.00017,0.00005,-0.00166,0.00404,0.00109,-0.04036,25.77993,2.68707,0.72544,-26.82379
0.49734,0.00024,0.00005,-0.00169,0.00588,0.0011,-0.04105,25.85166,3.92726,0.732,-27.43322
0.49872,0.00016,0.00004,-0.00172,0.00386,0.00107,-0.04174,25.92339,2.59102,0.72031,-28.05284
0.5001,0.00017,0.00004,-0.00175,0.00407,0.00107,-0.04245,25.99507,2.75179,0.72339,-28.68231
0.50148,0.00021,0.00004,-0.00178,0.00521,0.00108,-0.04315,26.06681,3.54099,0.73495,-29.32269
0.50286,0.00021,0.00004,-0.00181,0.00513,0.00107,-0.04387,26.13854,3.50226,0.73428,-29.97363
0.50424,0.00018,0.00004,-0.00184,0.0043,0.00107,-0.04459,26.21022,2.95204,0.73636,-30.63479
0.50562,0.00023,0.00004,-0.00187,0.00547,0.00108,-0.04532,26.28195,3.77734,0.74586,-31.30726
0.507,0.00015,0.00004,-0.0019,0.00369,0.00106,-0.04606,26.35368,2.56068,0.73695,-31.99069
0.50838,0.00019,0.00004,-0.00193,0.00463,0.00106,-0.04681,26.42536,3.23171,0.74212,-32.68469
0.50976,0.00018,0.00004,-0.00196,0.00442,0.00107,-0.04756,26.4971,3.10148,0.7484,-33.39043
0.51114,0.00011,0.00004,-0.00199,0.00266,0.00105,-0.04832,26.56878,1.87442,0.7388,-34.10699
0.51252,0.00025,0.00004,-0.00202,0.00604,0.00108,-0.04908,26.64051,4.28577,0.76398,-34.83556
0.5139,0.0002,0.00004,-0.00206,0.00488,0.00107,-0.04986,26.71224,3.48518,0.76192,-35.57576
0.51528,0.00013,0.00004,-0.00209,0.00313,0.00105,-0.05064,26.78392,2.24855,0.75428,-36.32717
0.51666,0.00013,0.00004,-0.00212,0.00313,0.00105,-0.05143,26.85565,2.25647,0.75637,-37.09102
0.51804,0.00017,0.00004,-0.00215,0.00416,0.00106,-0.05222,26.92738,3.01684,0.77062,-37.86692
0.51941,0.00017,0.00004,-0.00219,0.00417,0.00106,-0.05303,26.99906,3.04186,0.77612,-38.65441
0.5208,0.00021,0.00004,-0.00222,0.00508,0.00107,-0.05384,27.0708,3.71961,0.78394,-39.4548
0.52218,0.00019,0.00004,-0.00225,0.00455,0.00106,-0.05466,27.14253,3.3503,0.78148,-40.26765
0.52355,0.00019,0.00004,-0.00229,0.00452,0.00105,-0.05548,27.21421,3.35076,0.78134,-41.0925
0.52493,0.00016,0.00004,-0.00232,0.004,0.00105,-0.05632,27.28594,2.97608,0.78356,-41.93069
0.52631,0.00015,0.00004,-0.00236,0.00371,0.00105,-0.05716,27.35762,2.77892,0.78687,-42.78116
0.52769,0.00015,0.00004,-0.00239,0.00358,0.00105,-0.05801,27.42935,2.69246,0.79198,-43.64528
0.52907,0.0001,0.00004,-0.00243,0.00243,0.00104,-0.05887,27.50108,1.83757,0.7901,-44.52259
0.53045,0.00011,0.00004,-0.00246,0.00262,0.00104,-0.05973,27.57276,1.99025,0.78999,-45.41259
0.53183,0.00014,0.00004,-0.0025,0.00337,0.00105,-0.06061,27.6445,2.57517,0.80155,-46.31671
0.53321,0.00014,0.00004,-0.00254,0.00337,0.00105,-0.06149,27.71623,2.59211,0.80446,-47.23448
0.53459,0.0002,0.00004,-0.00257,0.00488,0.00107,-0.06238,27.78791,3.7681,0.82358,-48.16535
0.53597,0.00019,0.00004,-0.00261,0.00468,0.00106,-0.06327,27.85964,3.62987,0.82515,-49.11083
0.53735,0.00019,0.00004,-0.00265,0.00472,0.00106,-0.06418,27.93137,3.67904,0.82849,-50.07041
0.53873,0.00019,0.00004,-0.00268,0.00457,0.00105,-0.06509,28.00305,3.58346,0.82402,-51.04354
0.54011,0.00019,0.00004,-0.00272,0.00463,0.00106,-0.06601,28.07478,3.6486,0.83358,-52.03177
0.54149,0.00013,0.00004,-0.00276,0.00326,0.00105,-0.06694,28.14646,2.57912,0.82853,-53.03383
0.54287,0.00014,0.00004,-0.0028,0.00332,0.00105,-0.06788,28.2182,2.64317,0.8351,-54.05134
0.54425,0.00014,0.00004,-0.00284,0.0033,0.00105,-0.06883,28.28993,2.64247,0.83984,-55.08373
0.54563,0.00019,0.00004,-0.00288,0.00454,0.00106,-0.06978,28.36161,3.64842,0.85367,-56.13041
0.54701,0.0002,0.00004,-0.00292,0.00492,0.00106,-0.07074,28.43334,3.97534,0.86014,-57.19304
0.54839,0.00018,0.00005,-0.00296,0.00446,0.00111,-0.07171,28.50507,3.62575,0.9026,-58.27104
0.54977,0.00011,0.00005,-0.003,0.00277,0.00113,-0.07269,28.57675,2.26136,0.91891,-59.36378
0.55115,0.00008,0.00005,-0.00304,0.00202,0.00115,-0.07368,28.64849,1.65763,0.94419,-60.47301
0.55253,0.00018,0.00005,-0.00308,0.00444,0.00117,-0.07468,28.72022,3.65848,0.96156,-61.5981
0.55391,0.00017,0.00005,-0.00312,0.00418,0.00112,-0.07568,28.7919,3.46371,0.93246,-62.73839
0.55529,0.00013,0.00005,-0.00316,0.00308,0.00111,-0.0767,28.86363,2.56415,0.92142,-63.89571
0.55667,0.00016,0.00005,-0.0032,0.00394,0.00111,-0.07772,28.93531,3.30173,0.92717,-65.06855
0.55805,0.00017,0.00005,-0.00325,0.00407,0.0011,-0.07875,29.00704,3.42809,0.92832,-66.25877
0.55942,0.00014,0.00005,-0.00329,0.0033,0.0011,-0.07979,29.07877,2.78697,0.92985,-67.46571
0.5608,0.00012,0.00004,-0.00333,0.00283,0.00109,-0.08083,29.15045,2.40383,0.92448,-68.68865
0.56218,0.00019,0.00005,-0.00338,0.00456,0.0011,-0.08189,29.22219,3.89553,0.94203,-69.92953
0.56356,0.0002,0.00005,-0.00342,0.00497,0.0011,-0.08296,29.29392,4.26384,0.94286,-71.18766
0.56494,0.00019,0.00005,-0.00347,0.00464,0.00109,-0.08403,29.3656,4.00086,0.9436,-72.46228
0.56632,0.00019,0.00005,-0.00351,0.00465,0.0011,-0.08511,29.43733,4.03087,0.94917,-73.75541
0.5677,0.00016,0.00004,-0.00355,0.00384,0.00108,-0.08621,29.50906,3.34098,0.94401,-75.06631
0.56908,0.00019,0.00004,-0.0036,0.00456,0.00109,-0.08731,29.58074,3.98755,0.95049,-76.39421
0.57046,0.00015,0.00004,-0.00365,0.00355,0.00108,-0.08842,29.65247,3.11742,0.94785,-77.7412
0.57184,0.00016,0.00004,-0.00369,0.00378,0.00108,-0.08953,29.72415,3.34279,0.95766,-79.10553
0.57322,0.00021,0.00005,-0.00374,0.00504,0.00109,-0.09066,29.79589,4.47067,0.97159,-80.48934
0.5746,0.00012,0.00004,-0.00379,0.00292,0.00108,-0.0918,29.86762,2.60218,0.95926,-81.89184
0.57598,0.00015,0.00004,-0.00383,0.00361,0.00108,-0.09294,29.9393,3.23264,0.96997,-83.31219
0.57736,0.00014,0.00004,-0.00388,0.00333,0.00108,-0.0941,30.01103,2.99804,0.96876,-84.75264
0.57874,0.00018,0.00004,-0.00393,0.00446,0.00109,-0.09527,30.08276,4.03495,0.98247,-86.21234
0.58012,0.00017,0.00004,-0.00398,0.00421,0.00109,-0.09644,30.15444,3.82434,0.98754,-87.69041
0.5815,0.0001,0.00004,-0.00403,0.00249,0.00107,-0.09762,30.22617,2.27353,0.97841,-89.18919
0.58288,0.00013,0.00004,-0.00407,0.00327,0.00108,-0.09881,30.29791,3.00221,0.99311,-90.7078
0.58426,0.00015,0.00004,-0.00412,0.00356,0.00107,-0.10002,30.36959,3.27973,0.98838,-92.24532
0.58564,0.00016,0.00004,-0.00417,0.00385,0.00108,-0.10123,30.44132,3.56944,1.00282,-93.80417
0.58702,0.00019,0.00004,-0.00422,0.0046,0.00109,-0.10245,30.513,4.28276,1.01158,-95.3823
0.5884,0.00015,0.00004,-0.00428,0.00371,0.00108,-0.10368,30.58473,3.46848,1.00917,-96.98218
0.58978,0.00013,0.00004,-0.00433,0.00308,0.00108,-0.10492,30.65646,2.89266,1.01059,-98.60288
0.59116,0.00013,0.00004,-0.00438,0.00304,0.00107,-0.10617,30.72814,2.86781,1.01002,-100.2434
0.59254,0.00017,0.00004,-0.00443,0.00423,0.00108,-0.10742,30.79988,4.01664,1.02469,-101.906
0.59392,0.00016,0.00004,-0.00448,0.00382,0.00108,-0.10869,30.87161,3.64105,1.0257,-103.591
0.5953,0.0001,0.00004,-0.00453,0.00236,0.00107,-0.10997,30.94329,2.25943,1.02327,-105.295
0.59668,0.00018,0.00005,-0.00459,0.00433,0.00109,-0.11126,31.01502,4.16558,1.05052,-107.023
0.59806,0.00014,0.00004,-0.00464,0.00331,0.00108,-0.11256,31.08675,3.19922,1.04298,-108.773
0.59943,0.00015,0.00004,-0.0047,0.00374,0.00108,-0.11386,31.15843,3.63116,1.04528,-110.5439
0.60081,0.00015,0.00004,-0.00475,0.00367,0.00108,-0.11518,31.23016,3.58191,1.05653,-112.338
0.60219,0.00013,0.00004,-0.0048,0.00313,0.00108,-0.11651,31.30184,3.06864,1.05823,-114.154
0.60357,0.00018,0.00004,-0.00486,0.00448,0.00109,-0.11784,31.37358,4.41351,1.07105,-115.994
0.60495,0.00013,0.00004,-0.00491,0.00315,0.00108,-0.11919,31.44531,3.11813,1.06745,-117.858
0.60633,0.00007,0.00005,-0.00497,0.00167,0.00109,-0.12055,31.51699,1.66063,1.08693,-119.743
0.60771,0.00015,0.00005,-0.00503,0.00356,0.00116,-0.12192,31.58872,3.54789,1.1607,-121.653
0.60909,0.00017,0.00005,-0.00508,0.00401,0.0012,-0.12329,31.66045,4.01854,1.20469,-123.587
0.61047,0.00013,0.00005,-0.00514,0.00308,0.00121,-0.12468,31.73213,3.10511,1.21504,-125.543
0.61185,0.00012,0.00005,-0.0052,0.0029,0.00116,-0.12608,31.80386,2.93216,1.17193,-127.525
0.61323,0.00013,0.00005,-0.00526,0.00314,0.00114,-0.12748,31.8756,3.19215,1.16062,-129.531
0.61461,0.00009,0.00005,-0.00532,0.00217,0.00112,-0.1289,31.94728,2.21322,1.14716,-131.561
0.61599,0.00012,0.00005,-0.00537,0.00283,0.00113,-0.13033,32.01901,2.90139,1.15474,-133.616
0.61737,0.00014,0.00005,-0.00543,0.0033,0.00113,-0.13177,32.09069,3.4002,1.15949,-135.696
0.61875,0.00011,0.00005,-0.00549,0.00257,0.00112,-0.13322,32.16242,2.65499,1.15475,-137.802
0.62013,0.00015,0.00005,-0.00555,0.00352,0.00113,-0.13468,32.23415,3.65545,1.17173,-139.934
0.62151,0.00015,0.00005,-0.00561,0.00374,0.00112,-0.13614,32.30583,3.90438,1.16746,-142.09
0.62289,0.00012,0.00005,-0.00568,0.00295,0.00111,-0.13762,32.37756,3.09306,1.16841,-144.273
0.62427,0.00013,0.00005,-0.00574,0.00314,0.00111,-0.13912,32.4493,3.30152,1.17109,-146.483
0.62565,0.00017,0.00005,-0.0058,0.00419,0.00112,-0.14062,32.52098,4.43446,1.18868,-148.717
0.62703,0.00016,0.00005,-0.00586,0.00396,0.00112,-0.14213,32.59271,4.20762,1.19259,-150.98
0.62841,0.00016,0.00005,-0.00592,0.00391,0.00112,-0.14365,32.66444,4.16761,1.19499,-153.27
0.62979,0.00017,0.00005,-0.00599,0.00409,0.00112,-0.14518,32.73612,4.37885,1.20335,-155.585
0.63117,0.00012,0.00005,-0.00605,0.00289,0.00111,-0.14673,32.80785,3.10905,1.19351,-157.93
0.63255,0.00015,0.00005,-0.00611,0.00367,0.00112,-0.14828,32.87953,3.96686,1.20767,-160.3
0.63393,0.00019,0.00005,-0.00618,0.00471,0.00113,-0.14985,32.95127,5.11414,1.22193,-162.7
0.63531,0.00004,0.00004,-0.00624,0.00102,0.00109,-0.15142,33.023,1.11643,1.18591,-165.128
0.63668,0.00014,0.00005,-0.00631,0.00329,0.0011,-0.15301,33.09468,3.60638,1.20591,-167.583
0.63806,0.00011,0.00005,-0.00638,0.0027,0.0011,-0.15461,33.16641,2.97117,1.20909,-170.0678
0.63944,0.00011,0.00005,-0.00644,0.00267,0.0011,-0.15621,33.23814,2.9445,1.21688,-172.582
0.64082,0.00012,0.00005,-0.00651,0.00279,0.0011,-0.15783,33.30982,3.09763,1.22525,-175.123
0.6422,0.00011,0.00005,-0.00658,0.00257,0.0011,-0.15946,33.38155,2.86015,1.22629,-177.695
0.64358,0.00012,0.00005,-0.00664,0.00287,0.0011,-0.16111,33.45329,3.20732,1.23421,-180.298
0.64496,0.00013,0.00005,-0.00671,0.00314,0.0011,-0.16276,33.52497,3.52358,1.23865,-182.928
0.64634,0.00016,0.00005,-0.00678,0.00399,0.00111,-0.16442,33.5967,4.50307,1.25733,-185.59
0.64772,0.00013,0.00005,-0.00685,0.00325,0.00111,-0.1661,33.66838,3.68736,1.25287,-188.28
0.6491,0.00017,0.00005,-0.00692,0.00406,0.00111,-0.16778,33.74011,4.61691,1.26685,-191.004
0.65048,0.00012,0.00005,-0.00699,0.00301,0.00111,-0.16948,33.81184,3.44171,1.26646,-193.7576
0.65186,0.00012,0.00005,-0.00706,0.00279,0.0011,-0.17119,33.88352,3.20703,1.26822,-196.541
0.65324,0.00012,0.00005,-0.00713,0.00284,0.0011,-0.17291,33.95525,3.27933,1.26711,-199.358
0.65462,0.00009,0.00005,-0.0072,0.00229,0.0011,-0.17464,34.02699,2.65209,1.27504,-202.206
0.656,0.00007,0.00005,-0.00727,0.00165,0.0011,-0.17638,34.09867,1.91315,1.27475,-205.084
0.65738,0.00019,0.00005,-0.00735,0.00458,0.00112,-0.17814,34.1704,5.34814,1.30847,-207.997
0.65876,0.00014,0.00005,-0.00742,0.00351,0.00111,-0.1799,34.24213,4.11118,1.30265,-210.942
0.66014,0.00017,0.00005,-0.00749,0.00413,0.00111,-0.18168,34.31381,4.85927,1.30794,-213.918
0.66152,0.00018,0.00005,-0.00757,0.00441,0.00111,-0.18347,34.38554,5.21178,1.31742,-216.929
0.6629,0.00018,0.00005,-0.00764,0.00427,0.00111,-0.18527,34.45722,5.07399,1.31764,-219.971
0.66428,0.00009,0.00005,-0.00771,0.00224,0.0011,-0.18708,34.52895,2.66484,1.31325,-223.048
0.66566,0.00013,0.00005,-0.00779,0.00321,0.00118,-0.18891,34.60069,3.84447,1.41214,-226.16
0.66704,0.0001,0.00005,-0.00787,0.00245,0.00121,-0.19074,34.67237,2.94554,1.4585,-229.304
0.66842,0.00009,0.00005,-0.00794,0.00213,0.00124,-0.19259,34.7441,2.56587,1.4948,-232.484
0.6698,0.00014,0.00005,-0.00802,0.00348,0.00129,-0.19445,34.81583,4.2157,1.56203,-235.699
0.67118,0.00006,0.00005,-0.0081,0.00151,0.00129,-0.19632,34.88751,1.84079,1.56974,-238.946
0.67256,0.0001,0.00005,-0.00817,0.0025,0.00133,-0.1982,34.95924,3.05613,1.62385,-242.232
0.67394,0.0001,0.00006,-0.00825,0.00237,0.00137,-0.2001,35.03098,2.90544,1.67565,-245.552
0.67531,0.00022,0.00006,-0.00833,0.00527,0.00141,-0.202,35.10266,6.49826,1.74074,-248.906
0.67669,0.00018,0.00006,-0.00841,0.0044,0.00144,-0.20392,35.17439,5.43845,1.78059,-252.299
0.67807,0.00014,0.00006,-0.00849,0.00336,0.00145,-0.20585,35.24607,4.17635,1.80016,-255.726
0.67945,0.00012,0.00006,-0.00857,0.00289,0.00146,-0.20779,35.3178,3.60786,1.82664,-259.192
0.68083,0.00026,0.00006,-0.00865,0.00625,0.00153,-0.20975,35.38953,7.82447,1.91695,-262.694
0.68221,0.00013,0.00006,-0.00873,0.00311,0.00153,-0.21172,35.46121,3.91082,1.92108,-266.232
0.68359,0.00011,0.00006,-0.00881,0.00268,0.00155,-0.2137,35.53294,3.38361,1.96225,-269.81
0.68497,0.00016,0.00007,-0.00889,0.00377,0.00161,-0.21569,35.60468,4.78337,2.03525,-273.425
0.68635,0.00015,0.00007,-0.00898,0.00374,0.00163,-0.21769,35.67636,4.76055,2.0797,-277.076
0.68773,0.00019,0.00007,-0.00906,0.00471,0.00169,-0.21971,35.74809,6.02105,2.15474,-280.769
0.68911,0.0002,0.00007,-0.00914,0.00479,0.00172,-0.22174,35.81982,6.1488,2.21175,-284.5
0.69049,0.00025,0.00007,-0.00923,0.00611,0.00177,-0.22378,35.8915,7.87687,2.27933,-288.267
0.69187,0.00014,0.00007,-0.00931,0.00347,0.00178,-0.22583,35.96323,4.4818,2.29654,-292.076
0.69325,0.00021,0.00008,-0.0094,0.00506,0.00185,-0.22789,36.03496,6.57563,2.39599,-295.926
0.69463,0.00014,0.00008,-0.00948,0.00333,0.00188,-0.22997,36.10664,4.34142,2.45226,-299.812
0.69601,0.00007,0.00008,-0.00957,0.00176,0.00191,-0.23206,36.17838,2.30392,2.49788,-303.742
0.69739,0.00005,0.00008,-0.00966,0.00115,0.00196,-0.23417,36.25006,1.51076,2.57356,-307.709
0.69877,0.00006,0.00008,-0.00974,0.00157,0.00202,-0.23628,36.32179,2.06619,2.66677,-311.72
0.70015,0.00011,0.00009,-0.00983,0.0026,0.00211,-0.23841,36.39352,3.44064,2.79603,-315.772
0.70153,0.00018,0.00009,-0.00992,0.00435,0.00223,-0.24055,36.4652,5.78893,2.97051,-319.863
0.70291,0.00007,0.00009,-0.01001,0.00173,0.00224,-0.24271,36.53693,2.30343,2.98787,-323.999
0.70429,0.00007,0.0001,-0.0101,0.00161,0.00231,-0.24487,36.60866,2.15531,3.10136,-328.177
0.70567,0.00019,0.0001,-0.01019,0.0046,0.00247,-0.24705,36.68034,6.1861,3.32342,-332.394
0.70705,0.00002,0.0001,-0.01028,0.0004,0.00252,-0.24924,36.75208,0.54083,3.40012,-336.658
0.70843,0.00013,0.00011,-0.01037,0.00304,0.00274,-0.25145,36.82381,4.12867,3.71042,-340.964
0.70981,0.00016,0.00012,-0.01046,0.00389,0.00292,-0.25367,36.89549,5.28913,3.96987,-345.311
0.71118,0.00002,0.00012,-0.01055,0.00047,0.00298,-0.2559,36.96722,0.64815,4.07008,-349.705
0.71256,0.00015,0.00013,-0.01064,0.00357,0.00318,-0.25814,37.0389,4.89126,4.36443,-354.14
0.71394,0.00001,0.00013,-0.01074,0.00024,0.00317,-0.2604,37.11063,0.32766,4.37244,-358.622
0.71532,0,0.00014,-0.01083,-0.00007,0.00335,-0.26267,37.18237,-0.10085,4.62756,-363.15
0.7167,0.00008,0.00015,-0.01093,0.00185,0.00354,-0.26495,37.25405,2.56237,4.90747,-367.719
0.71808,-0.00007,0.00015,-0.01102,-0.00164,0.00371,-0.26725,37.32578,-2.2805,5.16866,-372.337
0.71946,-0.00001,0.00016,-0.01112,-0.00028,0.00398,-0.26956,37.39751,-0.39834,5.56152,-377.001
0.72084,0.00012,0.00018,-0.01121,0.00289,0.0044,-0.27188,37.46919,4.05137,6.17381,-381.7073
0.72222,0.00011,0.00019,-0.01131,0.00262,0.00471,-0.27422,37.54092,3.6856,6.63395,-386.464
0.7236,0.00037,0.00022,-0.0114,0.00905,0.00541,-0.27657,37.61265,12.79844,7.65988,-391.267
0.72498,0.00005,0.00024,-0.0115,0.00123,0.00588,-0.27893,37.68433,1.74463,8.34623,-396.114
0.72636,-0.00011,0.00028,-0.0116,-0.00256,0.00687,-0.28131,37.75607,-3.65389,9.78827,-401.012
0.72774,0.00026,0.0004,-0.0117,0.00625,0.0096,-0.2837,37.82775,8.93662,13.73477,-405.954
0.72884,0.00001,0.00063,-0.01178,0.00035,0.01535,-0.28562,37.88513,0.49587,22.02731,-409.946