File: 2025/starling_2025/figures/experimental_comparison/saxs_scattering/experiment/trf2_ntd/mff_out.csv
#File Plotted Below: trf2_ntd.dat,,,,,,,,,,
,,,,,,,,,,
    #Fit from 0.01-0.15 with polymer MFF,,,,,,,,,,
#Initial search parameter for I0 = 0.107824,,,,,,,,,,
#Initial search parameter for Rg = 30,,,,,,,,,,
#Initial search parameter for nu = 0.499881,,,,,,,,,,
#BestFit for I0 = 0.10208 +- 0.00089,,,,,,,,,,
#BestFit for I(0)/I0 = 1.00000 +- 0.00875,,,,,,,,,,
#BestFit for Rg = 16.56089 +- 0.16083,,,,,,,,,,
#BestFit for nu = 0.60280 +- 0.02575,,,,,,,,,,
#BestFit reduced chisquared = 1.66706,,,,,,,,,,
#-------------,,,,,,,,,,
#-------------,,,,,,,,,,
,,,,,,,,,,
    #q,I(q),Error,fit,I(q)/I0,Error/I0,fit/I0,qRg,((qRg)^2)I(q)/I0,((qRg)^2)*Error/I0,((qRg)^2)*fit/I0
0.01092,0.1393,0.03596,0.10106,1.36462,0.35224,0.99002,0.18085,0.04463,0.01152,0.03238
0.01236,0.12344,0.00759,0.10074,1.20925,0.07439,0.9869,0.2047,0.05067,0.00312,0.04135
0.0138,0.11348,0.00578,0.10039,1.11166,0.0566,0.98338,0.22855,0.05807,0.00296,0.05137
0.01524,0.09716,0.00459,0.09999,0.95179,0.04496,0.97949,0.2524,0.06063,0.00286,0.0624
0.01668,0.11407,0.00509,0.09955,1.11744,0.0499,0.97523,0.27625,0.08528,0.00381,0.07442
0.01812,0.09893,0.00497,0.09908,0.96914,0.04869,0.97062,0.3001,0.08728,0.00439,0.08741
0.01956,0.09799,0.00435,0.09858,0.95991,0.04265,0.96566,0.32395,0.10073,0.00448,0.10134
0.021,0.09476,0.0047,0.09804,0.92826,0.04601,0.96037,0.3478,0.11228,0.00557,0.11617
0.02244,0.10027,0.004,0.09746,0.98226,0.03915,0.95476,0.37165,0.13567,0.00541,0.13187
0.02388,0.09883,0.00408,0.09686,0.96814,0.04001,0.94883,0.3955,0.15143,0.00626,0.14841
0.02532,0.10192,0.0035,0.09622,0.99837,0.03426,0.94261,0.41934,0.17556,0.00602,0.16576
0.02676,0.09842,0.0035,0.09556,0.96414,0.03429,0.93609,0.44319,0.18938,0.00673,0.18387
0.0282,0.10335,0.00343,0.09486,1.0124,0.03362,0.9293,0.46704,0.22083,0.00733,0.20271
0.02964,0.08809,0.00317,0.09414,0.86297,0.03109,0.92223,0.49089,0.20795,0.00749,0.22223
0.03108,0.09033,0.00345,0.0934,0.88485,0.03382,0.91491,0.51474,0.23445,0.00896,0.24241
0.03252,0.09383,0.00313,0.09262,0.91913,0.0307,0.90735,0.53859,0.26662,0.00891,0.2632
0.03396,0.09448,0.00283,0.09183,0.92553,0.02771,0.89954,0.56244,0.29278,0.00877,0.28456
0.0354,0.09034,0.00255,0.09101,0.88502,0.02496,0.89152,0.58629,0.30421,0.00858,0.30644
0.03684,0.09185,0.00274,0.09017,0.89975,0.02688,0.88327,0.61014,0.33495,0.01001,0.32881
0.03828,0.08888,0.00332,0.0893,0.87072,0.03249,0.87483,0.63399,0.34997,0.01306,0.35163
0.03972,0.09344,0.00282,0.08842,0.91534,0.02761,0.86619,0.65783,0.39611,0.01195,0.37484
0.04116,0.0907,0.00262,0.08752,0.8885,0.02562,0.85737,0.68168,0.41288,0.01191,0.39841
0.0426,0.08552,0.00259,0.0866,0.83778,0.02534,0.84838,0.70553,0.41703,0.01261,0.42231
0.04404,0.08657,0.00233,0.08567,0.84802,0.02278,0.83923,0.72938,0.45115,0.01212,0.44647
0.04548,0.08578,0.00251,0.08472,0.84035,0.0246,0.82993,0.75323,0.47678,0.01395,0.47087
0.04692,0.08111,0.00241,0.08376,0.79452,0.02359,0.8205,0.77708,0.47978,0.01424,0.49546
0.04836,0.08444,0.0023,0.08278,0.82721,0.02255,0.81093,0.80093,0.53065,0.01446,0.5202
0.0498,0.08532,0.00234,0.08179,0.83583,0.02291,0.80125,0.82478,0.56858,0.01559,0.54506
0.05124,0.08148,0.00243,0.08079,0.79817,0.02379,0.79147,0.84863,0.57481,0.01714,0.56999
0.05268,0.07927,0.00227,0.07979,0.77654,0.02228,0.78159,0.87248,0.59112,0.01696,0.59496
0.05412,0.0807,0.00229,0.07877,0.79058,0.02246,0.77162,0.89633,0.63516,0.01805,0.61992
0.05556,0.07467,0.00194,0.07774,0.73143,0.01901,0.76159,0.92017,0.61931,0.0161,0.64485
0.057,0.07387,0.00204,0.07671,0.72368,0.01996,0.75149,0.94402,0.64493,0.01779,0.66971
0.05844,0.07882,0.00214,0.07568,0.77208,0.02099,0.74134,0.96787,0.72327,0.01967,0.69447
0.05988,0.07395,0.00219,0.07464,0.72439,0.0215,0.73115,0.99172,0.71245,0.02114,0.71909
0.06132,0.0739,0.00197,0.07359,0.72391,0.01928,0.72093,1.01557,0.74663,0.01988,0.74355
0.06276,0.07169,0.00192,0.07255,0.70232,0.01882,0.71069,1.03942,0.75878,0.02033,0.76782
0.0642,0.06879,0.00196,0.0715,0.67391,0.0192,0.70043,1.06327,0.76189,0.02171,0.79187
0.06564,0.07192,0.00192,0.07045,0.70453,0.01877,0.69017,1.08712,0.83264,0.02219,0.81566
0.06708,0.06709,0.00181,0.06941,0.65721,0.01771,0.67991,1.11097,0.81116,0.02185,0.83918
0.06852,0.06502,0.00171,0.06836,0.63697,0.01672,0.66966,1.13482,0.8203,0.02153,0.8624
0.06996,0.06592,0.00171,0.06732,0.64574,0.0168,0.65943,1.15867,0.86692,0.02255,0.88529
0.0714,0.06704,0.00183,0.06627,0.65671,0.01797,0.64922,1.18252,0.91831,0.02512,0.90783
0.07284,0.06687,0.00186,0.06523,0.65503,0.01821,0.63904,1.20636,0.95327,0.02649,0.93001
0.07428,0.0634,0.00176,0.0642,0.62102,0.01722,0.6289,1.23021,0.93987,0.02607,0.9518
0.07572,0.06039,0.00177,0.06317,0.59161,0.01738,0.61881,1.25406,0.93042,0.02733,0.97318
0.07716,0.05797,0.00177,0.06214,0.56785,0.01737,0.60877,1.27791,0.92733,0.02837,0.99415
0.0786,0.06044,0.0016,0.06113,0.59207,0.01569,0.59879,1.30176,1.00331,0.02658,1.0147
0.08004,0.05765,0.0018,0.06011,0.56479,0.01766,0.58888,1.32561,0.99247,0.03103,1.0348
0.08148,0.05673,0.0017,0.05911,0.55573,0.01662,0.57904,1.34946,1.012,0.03027,1.05446
0.08292,0.05568,0.00163,0.05811,0.54543,0.01598,0.56929,1.37331,1.02867,0.03015,1.07367
0.08436,0.0541,0.00161,0.05713,0.53,0.0158,0.55963,1.39716,1.03458,0.03085,1.09243
0.08581,0.05562,0.0016,0.05615,0.54486,0.01565,0.55007,1.42101,1.10022,0.0316,1.11073
0.08725,0.05595,0.00174,0.05519,0.54811,0.01703,0.54061,1.44485,1.14424,0.03555,1.12859
0.08869,0.0562,0.00166,0.05423,0.55054,0.01625,0.53127,1.4687,1.18756,0.03506,1.146
0.09013,0.05112,0.00155,0.05329,0.50078,0.01523,0.52205,1.49255,1.1156,0.03392,1.16297
0.09157,0.05083,0.00151,0.05236,0.49795,0.01482,0.51295,1.5164,1.14502,0.03409,1.17952
0.09301,0.05004,0.00145,0.05145,0.49017,0.01423,0.50398,1.54025,1.16286,0.03375,1.19564
0.09445,0.04802,0.00157,0.05055,0.47043,0.01539,0.49515,1.5641,1.15086,0.03766,1.21134
0.09589,0.04957,0.00142,0.04966,0.4856,0.01388,0.48645,1.58795,1.22449,0.035,1.22662
0.09733,0.04878,0.00138,0.04878,0.47783,0.01352,0.47787,1.6118,1.24135,0.03513,1.24147
0.09877,0.04741,0.00145,0.04792,0.46444,0.01423,0.46943,1.63565,1.24254,0.03806,1.2559
0.10021,0.04373,0.00142,0.04707,0.42836,0.01396,0.46112,1.6595,1.17968,0.03844,1.26991
0.10165,0.04809,0.00146,0.04624,0.4711,0.01429,0.45295,1.68335,1.33495,0.04048,1.2835
0.10309,0.04484,0.00149,0.04542,0.43924,0.01456,0.4449,1.7072,1.28018,0.04244,1.29668
0.10453,0.03979,0.00134,0.04461,0.38981,0.01314,0.43699,1.73104,1.16807,0.03936,1.30946
0.10597,0.04369,0.0013,0.04382,0.42801,0.01275,0.42921,1.75489,1.3181,0.03927,1.32183
0.10741,0.04511,0.00141,0.04303,0.44191,0.01381,0.42157,1.77874,1.39815,0.04369,1.33381
0.10885,0.04226,0.00132,0.04227,0.41395,0.01297,0.41406,1.80259,1.34504,0.04213,1.3454
0.11029,0.04178,0.00134,0.04151,0.40928,0.01315,0.40668,1.82643,1.3653,0.04386,1.35662
0.11173,0.04001,0.00131,0.04077,0.39196,0.01282,0.39943,1.8503,1.34192,0.04389,1.36747
0.11317,0.03985,0.00128,0.04005,0.39042,0.0125,0.39231,1.87415,1.37131,0.04391,1.37797
0.11461,0.03929,0.00137,0.03934,0.3849,0.01344,0.38533,1.89799,1.38655,0.04842,1.38812
0.11605,0.03814,0.00137,0.03864,0.37359,0.01344,0.37849,1.92184,1.37985,0.04965,1.39795
0.11749,0.03868,0.00127,0.03795,0.37895,0.01249,0.37178,1.94569,1.4346,0.04728,1.40745
0.11893,0.03611,0.00126,0.03728,0.35373,0.01231,0.36521,1.96954,1.37214,0.04777,1.41666
0.12037,0.03587,0.00134,0.03662,0.35137,0.01317,0.35877,1.99338,1.3962,0.05233,1.42559
0.12181,0.03821,0.00131,0.03598,0.37428,0.01287,0.35246,2.01723,1.52304,0.05235,1.43424
0.12325,0.03779,0.0013,0.03535,0.37021,0.01274,0.34629,2.04108,1.54229,0.05307,1.44264
0.12469,0.03573,0.0012,0.03473,0.35001,0.01177,0.34025,2.06493,1.49242,0.05017,1.4508
0.12613,0.03472,0.00126,0.03413,0.3401,0.01231,0.33434,2.08878,1.48385,0.05369,1.45871
0.12757,0.03538,0.0012,0.03354,0.3466,0.01176,0.32855,2.11262,1.54692,0.05248,1.4664
0.12901,0.03262,0.0012,0.03296,0.31955,0.01179,0.32289,2.13649,1.45861,0.05382,1.47387
0.13045,0.03186,0.00118,0.0324,0.31206,0.01161,0.31736,2.16033,1.4564,0.05417,1.48111
0.13189,0.03144,0.00113,0.03184,0.30801,0.01108,0.31194,2.18418,1.46939,0.05288,1.48816
0.13333,0.03378,0.00119,0.0313,0.33093,0.01164,0.30664,2.20803,1.61341,0.05676,1.495
0.13477,0.03223,0.00123,0.03077,0.31569,0.012,0.30146,2.23188,1.57255,0.05979,1.50166
0.13621,0.03098,0.00116,0.03026,0.30347,0.01134,0.29639,2.25573,1.54416,0.0577,1.50814
0.13765,0.0317,0.00125,0.02975,0.31053,0.01221,0.29144,2.27957,1.61366,0.06347,1.51444
0.13909,0.03093,0.00124,0.02926,0.30302,0.01216,0.28659,2.30342,1.60774,0.06453,1.52058
0.14053,0.02882,0.00112,0.02877,0.28233,0.01101,0.28185,2.32727,1.52913,0.05964,1.52656
0.14197,0.02996,0.00129,0.0283,0.29346,0.01266,0.27722,2.35112,1.6222,0.06999,1.53239
0.14341,0.02882,0.00117,0.02784,0.28233,0.0115,0.27269,2.37496,1.59245,0.06488,1.53807
0.14485,0.02692,0.00119,0.02738,0.26368,0.01161,0.26825,2.39881,1.51731,0.06682,1.54362
0.14629,0.02972,0.00117,0.02694,0.29117,0.01147,0.26392,2.42268,1.70898,0.06735,1.54904
0.14773,0.02983,0.00119,0.02651,0.29222,0.01166,0.25968,2.44652,1.74909,0.06981,1.55433
0.14917,0.02815,0.00123,0.02609,0.27576,0.01206,0.25554,2.47037,1.68291,0.07358,1.5595
0.15061,0.02581,0.00118,0.02567,0.25281,0.01155,0.25149,2.49422,1.57279,0.07187,1.56455
0.15205,0.02646,0.00119,0.02527,0.25923,0.01168,0.24753,2.51807,1.64368,0.07405,1.5695
0.15349,0.02663,0.00117,0.02487,0.26085,0.01146,0.24366,2.54191,1.68546,0.07405,1.57434
0.15493,0.02739,0.0012,0.02449,0.26835,0.01172,0.23987,2.56576,1.76657,0.07713,1.57909
0.15637,0.02701,0.00121,0.02411,0.26455,0.0119,0.23617,2.58961,1.7741,0.07982,1.58375
0.15781,0.02596,0.00122,0.02374,0.25435,0.01195,0.23254,2.61346,1.73727,0.0816,1.58832
0.15925,0.02627,0.00118,0.02338,0.25736,0.01152,0.229,2.63731,1.79006,0.08009,1.59281
0.16069,0.02415,0.00122,0.02302,0.23661,0.01197,0.22554,2.66115,1.6756,0.0848,1.59723
0.16213,0.0254,0.00125,0.02268,0.24886,0.01227,0.22215,2.68502,1.79414,0.08845,1.60158
0.16357,0.02566,0.00128,0.02234,0.25138,0.01249,0.21884,2.70886,1.84459,0.09167,1.60587
0.16501,0.02369,0.0012,0.02201,0.23211,0.01176,0.21561,2.73271,1.73334,0.0878,1.61009
0.16645,0.02335,0.00127,0.02169,0.22874,0.01249,0.21244,2.75656,1.73809,0.0949,1.61426
0.16789,0.02306,0.00125,0.02137,0.22592,0.01222,0.20934,2.78041,1.74652,0.09444,1.61837
0.16933,0.02491,0.00123,0.02106,0.24406,0.01201,0.20632,2.80426,1.91924,0.09446,1.62244
0.17077,0.02009,0.00123,0.02076,0.19685,0.01204,0.20335,2.8281,1.57442,0.09633,1.62645
0.17221,0.02271,0.00127,0.02046,0.22252,0.01245,0.20045,2.85195,1.80986,0.10124,1.63041
0.17365,0.02487,0.00116,0.02017,0.24364,0.01134,0.19762,2.8758,2.01499,0.09375,1.63433
0.17509,0.02412,0.00128,0.01989,0.23623,0.01249,0.19484,2.89965,1.98623,0.10506,1.6382
0.17653,0.01988,0.00128,0.01961,0.19471,0.01255,0.19212,2.92349,1.66416,0.10724,1.64203
0.17797,0.02265,0.00123,0.01934,0.22185,0.01209,0.18946,2.94734,1.92717,0.10505,1.64581
0.17941,0.0225,0.00123,0.01907,0.22036,0.01203,0.18685,2.97121,1.94539,0.1062,1.64954
0.18085,0.02243,0.00127,0.01881,0.21971,0.01246,0.1843,2.99505,1.97086,0.11177,1.65322
0.18229,0.01972,0.00126,0.01856,0.19322,0.01232,0.1818,3.0189,1.76094,0.11224,1.65685
0.18373,0.02247,0.0012,0.01831,0.22012,0.01179,0.17934,3.04275,2.03794,0.10917,1.66043
0.18517,0.02103,0.00128,0.01806,0.20601,0.01253,0.17694,3.0666,1.93728,0.1178,1.66396
0.18661,0.01907,0.00127,0.01782,0.18679,0.01246,0.17459,3.09044,1.78399,0.11904,1.66744
0.18805,0.01832,0.00125,0.01759,0.17946,0.01223,0.17228,3.11429,1.74051,0.11862,1.67089
0.18949,0.01998,0.00119,0.01736,0.19577,0.01166,0.17002,3.13814,1.9279,0.11478,1.6743
0.19093,0.01946,0.0013,0.01713,0.19067,0.01278,0.1678,3.16199,1.90632,0.12775,1.67768
0.19237,0.01865,0.00134,0.01691,0.18265,0.01315,0.16563,3.18583,1.85386,0.13352,1.68103
0.19381,0.02009,0.0013,0.01669,0.1968,0.0127,0.1635,3.20968,2.02742,0.13088,1.68435
0.19525,0.01731,0.00124,0.01648,0.16959,0.01217,0.16141,3.23355,1.77323,0.12727,1.68765
0.19669,0.02102,0.00127,0.01627,0.20589,0.01248,0.15936,3.25739,2.18461,0.13245,1.69092
0.19813,0.02003,0.00127,0.01606,0.1962,0.01247,0.15736,3.28124,2.11243,0.13426,1.69417
0.19957,0.01973,0.00124,0.01586,0.19327,0.01211,0.15539,3.30509,2.11118,0.13226,1.6974
0.20101,0.01812,0.00121,0.01567,0.17748,0.01186,0.15346,3.32894,1.9668,0.13147,1.70061
0.20245,0.01757,0.00128,0.01547,0.17209,0.01255,0.15157,3.35279,1.93452,0.14107,1.7038
0.20389,0.01753,0.00128,0.01528,0.17175,0.01254,0.14971,3.37663,1.95821,0.14299,1.70697
0.20533,0.01614,0.00127,0.0151,0.15812,0.01241,0.14789,3.40048,1.82834,0.1435,1.71012
0.20677,0.02,0.00128,0.01491,0.19594,0.01252,0.14611,3.42433,2.29759,0.14685,1.71325
0.20821,0.01935,0.00125,0.01474,0.18959,0.01227,0.14435,3.44818,2.25421,0.14586,1.71635
0.20965,0.0165,0.00131,0.01456,0.16161,0.01281,0.14263,3.47202,1.94815,0.15443,1.71944
0.21109,0.01776,0.0013,0.01439,0.17396,0.01269,0.14094,3.49587,2.126,0.15513,1.7225
0.21253,0.01751,0.00129,0.01422,0.17157,0.01268,0.13928,3.51974,2.12544,0.15709,1.72553
0.21397,0.01484,0.00125,0.01405,0.14535,0.01224,0.13766,3.54358,1.82518,0.15374,1.72853
0.21541,0.01641,0.00135,0.01389,0.16074,0.01319,0.13606,3.56743,2.04571,0.1679,1.73152
0.21685,0.01428,0.00126,0.01373,0.13987,0.01234,0.13448,3.59128,1.80396,0.15911,1.73448
0.21829,0.01784,0.0013,0.01357,0.17479,0.01278,0.13294,3.61513,2.28437,0.16696,1.73742
0.21973,0.01699,0.00129,0.01342,0.16646,0.01263,0.13142,3.63897,2.20425,0.16727,1.74034
0.22117,0.01475,0.00142,0.01326,0.14453,0.01389,0.12994,3.66282,1.939,0.18633,1.74325
0.22261,0.01661,0.00127,0.01311,0.16267,0.0124,0.12847,3.68667,2.21096,0.16855,1.74615
0.22405,0.01607,0.00132,0.01297,0.15741,0.01291,0.12704,3.71052,2.16721,0.1777,1.74903
0.22549,0.01674,0.00128,0.01282,0.164,0.01251,0.12563,3.73436,2.28704,0.17451,1.75191
0.22693,0.01742,0.00125,0.01268,0.17061,0.01228,0.12424,3.75821,2.40974,0.17344,1.75478
0.22837,0.01536,0.0012,0.01254,0.15042,0.01176,0.12288,3.78206,2.15158,0.16822,1.75763
0.22981,0.01882,0.00123,0.01241,0.18436,0.01206,0.12154,3.80592,2.67048,0.17475,1.76048
0.23125,0.01433,0.00129,0.01227,0.14038,0.01261,0.12022,3.82977,2.05901,0.18498,1.76333
0.23269,0.0158,0.00117,0.01214,0.15474,0.01149,0.11893,3.85362,2.2979,0.17066,1.76616
0.23413,0.01553,0.00121,0.01201,0.15215,0.01189,0.11766,3.87747,2.28759,0.17877,1.76899
0.23557,0.01547,0.00123,0.01188,0.15154,0.01201,0.11641,3.90132,2.30652,0.18282,1.77181
0.23701,0.01494,0.00116,0.01176,0.14631,0.0114,0.11518,3.92516,2.25426,0.1756,1.77462
0.23845,0.01431,0.0012,0.01163,0.1402,0.01172,0.11398,3.94901,2.18636,0.18273,1.77742
0.23989,0.01416,0.00124,0.01151,0.13867,0.01215,0.11279,3.97286,2.18874,0.19181,1.78022
0.24133,0.0128,0.00115,0.01139,0.12534,0.01126,0.11162,3.99671,2.00215,0.17986,1.783
0.24277,0.01418,0.00129,0.01128,0.13894,0.01264,0.11047,4.02055,2.2459,0.20434,1.78577
0.24421,0.01219,0.00125,0.01116,0.11938,0.01221,0.10934,4.0444,1.95278,0.19967,1.78853
0.24566,0.01339,0.00125,0.01105,0.13113,0.0122,0.10823,4.06827,2.17038,0.20199,1.79128
0.2471,0.01532,0.0013,0.01094,0.15005,0.01277,0.10714,4.09211,2.51256,0.21378,1.79402
0.24854,0.01273,0.00127,0.01083,0.12466,0.01246,0.10606,4.11596,2.11188,0.21101,1.79675
0.24998,0.0129,0.00121,0.01072,0.12633,0.01183,0.105,4.13981,2.16511,0.20269,1.79948
0.25141,0.01545,0.00126,0.01061,0.15135,0.01236,0.10396,4.16366,2.62381,0.21435,1.80221
0.25285,0.01366,0.00121,0.01051,0.13379,0.01188,0.10293,4.1875,2.34609,0.20827,1.80493
0.25429,0.0135,0.00118,0.0104,0.13221,0.01153,0.10192,4.21135,2.34487,0.20456,1.80765
0.25573,0.01219,0.00125,0.0103,0.11943,0.01226,0.10093,4.2352,2.14225,0.21987,1.81037
0.25717,0.01354,0.00121,0.0102,0.13262,0.01181,0.09995,4.25905,2.40575,0.21421,1.81309
0.25861,0.01126,0.00123,0.01011,0.11034,0.01208,0.09899,4.28289,2.02391,0.22159,1.81581
0.26005,0.01245,0.00123,0.01001,0.12199,0.01208,0.09804,4.30674,2.26268,0.22412,1.81853
0.26149,0.01232,0.00126,0.00991,0.12067,0.01236,0.09711,4.33059,2.26311,0.23176,1.82125
0.26294,0.01474,0.00123,0.00982,0.14436,0.01208,0.0962,4.35445,2.73728,0.22907,1.82398
0.26438,0.01178,0.00116,0.00973,0.11537,0.01141,0.09529,4.3783,2.21168,0.21867,1.82671
0.26582,0.01002,0.00128,0.00964,0.09818,0.01249,0.0944,4.40215,1.90266,0.2421,1.82944
0.26726,0.01237,0.0012,0.00955,0.12119,0.01172,0.09353,4.426,2.374,0.22967,1.83217
0.2687,0.01196,0.00122,0.00946,0.11718,0.01195,0.09267,4.44984,2.32028,0.23672,1.8349
0.27014,0.01128,0.00124,0.00937,0.11054,0.01216,0.09182,4.47369,2.21241,0.24342,1.83764
0.27158,0.0115,0.00121,0.00929,0.11265,0.01189,0.09098,4.49754,2.27862,0.24057,1.84037
0.27302,0.01199,0.00119,0.0092,0.11746,0.01166,0.09016,4.52139,2.40124,0.23846,1.8431
0.27446,0.01121,0.00125,0.00912,0.10977,0.01225,0.08935,4.54524,2.26775,0.25301,1.84583
0.2759,0.00872,0.00129,0.00904,0.08543,0.01262,0.08855,4.56908,1.78351,0.2634,1.84856
0.27734,0.01009,0.00128,0.00896,0.09888,0.01251,0.08776,4.59293,2.08592,0.2639,1.8513
0.27878,0.01166,0.00126,0.00888,0.11422,0.0123,0.08698,4.6168,2.43451,0.26215,1.85403
0.28022,0.0105,0.00125,0.0088,0.10282,0.01224,0.08622,4.64064,2.21423,0.26354,1.85677
0.28166,0.01004,0.00124,0.00872,0.09833,0.01213,0.08547,4.66449,2.13945,0.26393,1.85951
0.2831,0.01326,0.00121,0.00865,0.12989,0.01188,0.08472,4.68834,2.85507,0.26106,1.86226
0.28454,0.00897,0.00125,0.00857,0.08788,0.01227,0.08399,4.71219,1.95144,0.27237,1.86501
0.28598,0.0108,0.00124,0.0085,0.10577,0.01212,0.08327,4.73603,2.37233,0.27191,1.86776
0.28742,0.01025,0.00124,0.00843,0.10037,0.01211,0.08256,4.75988,2.27406,0.27431,1.87052
0.28886,0.00915,0.0013,0.00836,0.08966,0.01272,0.08186,4.78373,2.05169,0.29101,1.87328
0.2903,0.01285,0.00119,0.00829,0.12589,0.01169,0.08117,4.80758,2.90962,0.27025,1.87604
0.29174,0.01004,0.00125,0.00822,0.09836,0.01229,0.08049,4.83142,2.29587,0.28694,1.87881
0.29318,0.00971,0.00136,0.00815,0.09513,0.01335,0.07982,4.85527,2.24249,0.31461,1.88158
0.29462,0.01216,0.00127,0.00808,0.11916,0.0124,0.07916,4.87912,2.83666,0.29531,1.88436
0.29606,0.01226,0.00126,0.00801,0.12013,0.01238,0.0785,4.90298,2.88779,0.29757,1.88714
0.2975,0.01119,0.00126,0.00795,0.10958,0.01238,0.07786,4.92683,2.65985,0.30058,1.88992
0.29894,0.01172,0.00125,0.00788,0.11478,0.01226,0.07722,4.95068,2.81322,0.3005,1.89269
0.30038,0.00774,0.0013,0.00782,0.07579,0.01269,0.0766,4.97453,1.87544,0.31406,1.89547
0.30182,0.00979,0.00122,0.00776,0.0959,0.01198,0.07598,4.99837,2.39599,0.29925,1.89825
0.30326,0.00837,0.00124,0.00769,0.08204,0.01215,0.07537,5.02222,2.06921,0.30638,1.90103
0.3047,0.01006,0.00127,0.00763,0.09853,0.01246,0.07477,5.04607,2.50897,0.31737,1.9038
0.30614,0.0114,0.00122,0.00757,0.1117,0.01192,0.07417,5.06992,2.87103,0.30642,1.90657
0.30758,0.01095,0.00116,0.00751,0.10727,0.01133,0.07359,5.09377,2.78319,0.294,1.90934
0.30902,0.00925,0.00122,0.00745,0.0906,0.01196,0.07301,5.11761,2.37274,0.31318,1.9121
0.31046,0.00922,0.00131,0.00739,0.09033,0.01287,0.07244,5.14146,2.38785,0.34011,1.91487
0.3119,0.01024,0.00127,0.00734,0.10031,0.01242,0.07187,5.16533,2.67637,0.33126,1.91763
0.31334,0.01079,0.00131,0.00728,0.10566,0.01287,0.07132,5.18917,2.84517,0.34661,1.9204
0.31478,0.00911,0.00119,0.00722,0.08924,0.01167,0.07077,5.21302,2.42522,0.31708,1.92316
0.31622,0.00752,0.00121,0.00717,0.07363,0.01181,0.07023,5.23687,2.01933,0.32398,1.92592
0.31766,0.00815,0.00127,0.00711,0.07985,0.01249,0.06969,5.26072,2.20991,0.34556,1.92868
0.3191,0.00967,0.00124,0.00706,0.09476,0.01216,0.06916,5.28456,2.64635,0.33947,1.93144
0.32054,0.00854,0.00119,0.00701,0.08366,0.01168,0.06864,5.30841,2.35747,0.32921,1.9342
0.32198,0.00767,0.00121,0.00695,0.07511,0.01188,0.06812,5.33226,2.13564,0.33784,1.93695
0.32342,0.00935,0.00113,0.0069,0.09158,0.01104,0.06761,5.35611,2.62714,0.31659,1.9397
0.32486,0.00724,0.00113,0.00685,0.0709,0.01102,0.06711,5.37995,2.05219,0.31903,1.94245
0.3263,0.00967,0.0012,0.0068,0.09471,0.01174,0.06661,5.4038,2.7655,0.34289,1.9452
0.32774,0.0078,0.00112,0.00675,0.07639,0.011,0.06612,5.42765,2.25052,0.32391,1.94794
0.32918,0.0104,0.00118,0.0067,0.10185,0.01159,0.06564,5.45151,3.02687,0.34453,1.95067
0.33062,0.00882,0.00122,0.00665,0.08638,0.01195,0.06516,5.47536,2.58974,0.35823,1.9534
0.33206,0.00875,0.00117,0.0066,0.08576,0.01149,0.06468,5.49921,2.59355,0.34761,1.95612
0.3335,0.00798,0.00126,0.00656,0.0782,0.01233,0.06422,5.52306,2.38539,0.3762,1.95883
0.33494,0.00752,0.00118,0.00651,0.07364,0.01154,0.06375,5.5469,2.26566,0.35513,1.96153
0.33638,0.00773,0.00121,0.00646,0.07576,0.0119,0.06329,5.57075,2.35108,0.36932,1.96423
0.33782,0.00845,0.00112,0.00641,0.08279,0.01099,0.06284,5.5946,2.59136,0.34388,1.96691
0.33926,0.01023,0.00122,0.00637,0.10018,0.01195,0.06239,5.61845,3.16223,0.37729,1.96959
0.3407,0.00982,0.00121,0.00632,0.09617,0.01186,0.06195,5.6423,3.06167,0.37759,1.97226
0.34214,0.00795,0.00123,0.00628,0.07789,0.01207,0.06151,5.66614,2.5006,0.38744,1.97492
0.34358,0.00873,0.00118,0.00624,0.08555,0.01159,0.06108,5.68999,2.76973,0.37523,1.97757
0.34502,0.00777,0.00123,0.00619,0.07614,0.01207,0.06065,5.71384,2.48589,0.39418,1.98022
0.34646,0.008,0.00124,0.00615,0.07834,0.01213,0.06023,5.7377,2.57888,0.39948,1.98286
0.3479,0.00672,0.00121,0.00611,0.06584,0.0119,0.05981,5.76155,2.18562,0.39504,1.98549
0.34934,0.0073,0.00126,0.00606,0.0715,0.0123,0.0594,5.7854,2.39329,0.4117,1.9881
0.35078,0.00723,0.00123,0.00602,0.07079,0.01201,0.05899,5.80925,2.38905,0.40536,1.99071
0.35222,0.00785,0.00112,0.00598,0.07686,0.01098,0.05858,5.83309,2.61527,0.37368,1.99331
0.35366,0.00659,0.00118,0.00594,0.06459,0.0116,0.05818,5.85694,2.21578,0.39786,1.9959
0.3551,0.00719,0.00122,0.0059,0.0704,0.01191,0.05779,5.88079,2.43486,0.41205,1.99848
0.35654,0.00864,0.00122,0.00586,0.08459,0.01195,0.05739,5.90464,2.94929,0.41667,2.00105
0.35798,0.00689,0.00118,0.00582,0.06748,0.01153,0.05701,5.92848,2.37172,0.4052,2.0036
0.35942,0.00709,0.00123,0.00578,0.06948,0.012,0.05662,5.95233,2.46177,0.42524,2.00615
0.36086,0.00591,0.00122,0.00574,0.05794,0.01197,0.05624,5.97618,2.06931,0.42733,2.00868
0.3623,0.00663,0.00119,0.0057,0.06491,0.01165,0.05587,6.00004,2.33692,0.41937,2.01119
0.36374,0.00446,0.00114,0.00566,0.0437,0.01116,0.05549,6.02389,1.58569,0.40488,2.0137
0.36518,0.00743,0.00127,0.00563,0.07281,0.01244,0.05512,6.04774,2.66319,0.45516,2.01618
0.36662,0.00844,0.00122,0.00559,0.08269,0.01194,0.05476,6.07159,3.04816,0.44021,2.01865
0.36806,0.00746,0.00119,0.00555,0.07304,0.01165,0.0544,6.09543,2.71379,0.4328,2.02111
0.3695,0.00756,0.00125,0.00552,0.07406,0.01224,0.05404,6.11928,2.77312,0.4583,2.02356
0.37094,0.00663,0.00127,0.00548,0.06498,0.01249,0.05369,6.14313,2.45236,0.4713,2.02599
0.37238,0.00706,0.00126,0.00544,0.06916,0.0123,0.05333,6.16698,2.63037,0.46785,2.02841
0.37382,0.00663,0.00114,0.00541,0.06493,0.01114,0.05299,6.19083,2.48872,0.42698,2.03082
0.37526,0.00521,0.00124,0.00537,0.05101,0.01211,0.05264,6.21467,1.96998,0.46755,2.03322
0.3767,0.0061,0.00126,0.00534,0.05978,0.0123,0.0523,6.23852,2.3266,0.47872,2.03561
0.37814,0.00672,0.0012,0.0053,0.06586,0.01174,0.05197,6.26237,2.58301,0.46052,2.03799
0.37958,0.00472,0.00113,0.00527,0.04629,0.01107,0.05163,6.28623,1.82906,0.43752,2.04036
0.38102,0.00475,0.0012,0.00524,0.0465,0.01178,0.0513,6.31008,1.85144,0.46902,2.04272
0.38246,0.00826,0.00131,0.0052,0.08087,0.01287,0.05098,6.33393,3.24429,0.51613,2.04507
0.3839,0.00574,0.00121,0.00517,0.05618,0.01188,0.05065,6.35778,2.27093,0.4802,2.04741
0.38534,0.00796,0.0012,0.00514,0.07799,0.01171,0.05033,6.38162,3.17633,0.47678,2.04975
0.38678,0.00561,0.00123,0.00511,0.055,0.01209,0.05001,6.40547,2.25663,0.49617,2.05207
0.38822,0.00496,0.00118,0.00507,0.0486,0.01152,0.0497,6.42932,2.00874,0.47631,2.05439
0.38966,0.00472,0.00123,0.00504,0.04627,0.01208,0.04939,6.45317,1.92668,0.50308,2.0567
0.3911,0.00553,0.00127,0.00501,0.05422,0.01243,0.04908,6.47701,2.2746,0.52155,2.059
0.39254,0.00736,0.00119,0.00498,0.07214,0.01166,0.04878,6.50086,3.04881,0.49286,2.0613
0.39398,0.00386,0.00125,0.00495,0.03783,0.01223,0.04847,6.52471,1.61068,0.52049,2.06358
0.39542,0.0069,0.00117,0.00492,0.06757,0.0115,0.04817,6.54857,2.89752,0.49316,2.06587
0.39686,0.0071,0.00129,0.00489,0.06959,0.0126,0.04788,6.57242,3.00599,0.54425,2.06814
0.3983,0.00462,0.00118,0.00486,0.04524,0.01161,0.04758,6.59627,1.96827,0.505,2.07041
0.39974,0.00268,0.00122,0.00483,0.02623,0.01194,0.04729,6.62012,1.1496,0.52328,2.07268
0.40118,0.00502,0.00116,0.0048,0.04919,0.01132,0.04701,6.64396,2.1715,0.49965,2.07493
0.40262,0.00534,0.00119,0.00477,0.05229,0.01165,0.04672,6.66781,2.3247,0.51802,2.07719
0.40406,0.00574,0.00123,0.00474,0.05622,0.01206,0.04644,6.69166,2.51752,0.53995,2.07943
0.4055,0.00609,0.00126,0.00471,0.05963,0.01232,0.04616,6.71551,2.68938,0.5557,2.08167
0.40694,0.00361,0.00115,0.00468,0.03533,0.01128,0.04588,6.73935,1.60448,0.51237,2.08391
0.40838,0.00559,0.00116,0.00466,0.05474,0.01139,0.04561,6.7632,2.50367,0.52087,2.08614
0.40982,0.00679,0.00111,0.00463,0.06652,0.01092,0.04534,6.78705,3.06408,0.50284,2.08837
0.41126,0.00566,0.00119,0.0046,0.05548,0.0117,0.04507,6.8109,2.57349,0.54266,2.09059
0.4127,0.00618,0.00116,0.00457,0.0605,0.0114,0.0448,6.83476,2.82612,0.53251,2.09281
0.41414,0.00507,0.00117,0.00455,0.04969,0.01143,0.04454,6.85861,2.33748,0.53779,2.09502
0.41558,0.00704,0.00121,0.00452,0.06895,0.01188,0.04428,6.88246,3.26604,0.56255,2.09723
0.41702,0.00689,0.00105,0.00449,0.06746,0.01031,0.04402,6.90631,3.21766,0.49172,2.09943
0.41846,0.00764,0.00121,0.00447,0.0748,0.01186,0.04376,6.93015,3.59252,0.56946,2.10163
0.4199,0.0048,0.00119,0.00444,0.04705,0.01165,0.04351,6.954,2.27546,0.56319,2.10383
0.42135,0.00508,0.00122,0.00442,0.04977,0.012,0.04325,6.97785,2.42309,0.58404,2.10602
0.42279,0.00511,0.00121,0.00439,0.05001,0.01181,0.043,7.0017,2.45168,0.57891,2.1082
0.42423,0.00508,0.00117,0.00436,0.04976,0.01148,0.04276,7.02554,2.45606,0.56661,2.11038
0.42567,0.00645,0.00114,0.00434,0.0632,0.01116,0.04251,7.04939,3.14086,0.55446,2.11255
0.42711,0.00427,0.00117,0.00431,0.04182,0.01143,0.04227,7.07324,2.09213,0.57191,2.11472
0.42855,0.00752,0.00113,0.00429,0.07363,0.01111,0.04203,7.09709,3.70873,0.55969,2.11688
0.42999,0.00651,0.0011,0.00427,0.06374,0.0108,0.04179,7.12095,3.23215,0.54771,2.11904
0.43143,0.00547,0.00111,0.00424,0.05357,0.01086,0.04155,7.1448,2.73472,0.5545,2.1212
0.43287,0.00326,0.00123,0.00422,0.03192,0.01201,0.04132,7.16865,1.64042,0.61736,2.12335
0.43431,0.0032,0.00121,0.00419,0.03139,0.01181,0.04109,7.19249,1.62383,0.61079,2.1255
0.43575,0.00577,0.00121,0.00417,0.05657,0.01183,0.04086,7.21634,2.94602,0.61626,2.12764
0.43719,0.00496,0.00122,0.00415,0.04858,0.01196,0.04063,7.24019,2.54674,0.62688,2.12978
0.43863,0.00511,0.00124,0.00412,0.05001,0.01211,0.0404,7.26404,2.63884,0.63881,2.13191
0.44007,0.00302,0.00118,0.0041,0.02958,0.01154,0.04018,7.28788,1.57111,0.61273,2.13405
0.44151,0.00493,0.00123,0.00408,0.04828,0.01208,0.03996,7.31173,2.581,0.64568,2.13617
0.44295,0.00454,0.00123,0.00406,0.04448,0.01201,0.03974,7.33558,2.39334,0.64603,2.1383
0.44439,0.00578,0.00124,0.00403,0.05661,0.01218,0.03952,7.35943,3.06602,0.65967,2.14042
0.44583,0.00528,0.00133,0.00401,0.05175,0.013,0.0393,7.38329,2.82092,0.70844,2.14254
0.44727,0.0048,0.00122,0.00399,0.04703,0.01191,0.03909,7.40714,2.58037,0.6535,2.14465
0.44871,0.00461,0.00119,0.00397,0.04512,0.01167,0.03888,7.43099,2.49125,0.64451,2.14676
0.45015,0.00423,0.0012,0.00395,0.04139,0.01179,0.03867,7.45483,2.3003,0.65505,2.14887
0.45159,0.00398,0.00125,0.00393,0.03903,0.0122,0.03846,7.47868,2.18318,0.68214,2.15097
0.45303,0.00653,0.00118,0.0039,0.06395,0.01159,0.03825,7.50253,3.59968,0.65238,2.15306
0.45447,0.0016,0.00113,0.00388,0.0157,0.01108,0.03805,7.52638,0.88912,0.62788,2.15516
0.45591,0.00567,0.00129,0.00386,0.05553,0.0126,0.03784,7.55023,3.16548,0.71817,2.15725
0.45735,0.00418,0.00125,0.00384,0.04096,0.01221,0.03764,7.57407,2.34966,0.70064,2.15933
0.45879,0.00507,0.0012,0.00382,0.0497,0.01178,0.03744,7.59792,2.86882,0.68015,2.16141
0.46023,0.0046,0.00126,0.0038,0.04507,0.01237,0.03724,7.62177,2.61843,0.71853,2.16349
0.46167,0.00189,0.00122,0.00378,0.0185,0.01196,0.03705,7.64562,1.08148,0.69937,2.16556
0.46311,0.00631,0.0012,0.00376,0.06181,0.01176,0.03685,7.66948,3.63586,0.69189,2.16763
0.46455,0.00312,0.00117,0.00374,0.03053,0.01147,0.03666,7.69333,1.8067,0.67884,2.1697
0.46599,0.00396,0.00119,0.00372,0.03875,0.01165,0.03647,7.71718,2.3077,0.69389,2.17176
0.46743,0.00405,0.00122,0.0037,0.03966,0.01192,0.03628,7.74102,2.37667,0.71411,2.17382
0.46887,0.00464,0.00123,0.00368,0.04545,0.01203,0.03609,7.76487,2.74034,0.72529,2.17587
0.47031,0.00386,0.00121,0.00366,0.03783,0.01189,0.0359,7.78872,2.2952,0.7216,2.17793
0.47175,0.00419,0.00126,0.00365,0.04108,0.01234,0.03572,7.81257,2.50766,0.75312,2.17997
0.47319,0.00545,0.00124,0.00363,0.05342,0.01211,0.03553,7.83641,3.28048,0.74364,2.18202
0.47463,0.00369,0.00124,0.00361,0.03611,0.01212,0.03535,7.86026,2.23131,0.74854,2.18406
0.47607,0.00332,0.00124,0.00359,0.03256,0.01219,0.03517,7.88411,2.02389,0.75754,2.1861
0.47751,0.00395,0.00122,0.00357,0.03873,0.01198,0.03499,7.90796,2.42208,0.74925,2.18813
0.47895,0.00475,0.00117,0.00355,0.04652,0.01146,0.03481,7.93182,2.92672,0.72107,2.19016
0.48039,0.00365,0.00118,0.00354,0.03579,0.0116,0.03464,7.95567,2.26539,0.73401,2.19219
0.48183,0.00195,0.00128,0.00352,0.01913,0.01253,0.03446,7.97952,1.2182,0.79754,2.19421
0.48327,0.00481,0.00121,0.0035,0.04711,0.01188,0.03429,8.00336,3.01778,0.76111,2.19622
0.48471,0.00294,0.00123,0.00348,0.02884,0.01209,0.03411,8.02721,1.85805,0.77922,2.19824
0.48615,0.00396,0.00113,0.00347,0.03884,0.01106,0.03394,8.05106,2.51743,0.71688,2.20024
0.48759,0.00576,0.00115,0.00345,0.05639,0.01123,0.03377,8.07491,3.67714,0.73204,2.20225
0.48903,0.00181,0.00123,0.00343,0.01773,0.01208,0.03361,8.09876,1.16323,0.79211,2.20425
0.49047,0.00317,0.00125,0.00341,0.03106,0.01223,0.03344,8.1226,2.04943,0.80696,2.20624
0.49191,0.00204,0.00124,0.0034,0.02,0.01217,0.03327,8.14645,1.32756,0.80782,2.20823
0.49335,0.00562,0.00123,0.00338,0.05503,0.01202,0.03311,8.1703,3.6736,0.80225,2.21022
0.49479,0.00578,0.00119,0.00336,0.05661,0.01165,0.03295,8.19415,3.80083,0.78194,2.2122
0.49623,0.00288,0.00119,0.00335,0.0282,0.01167,0.03279,8.21801,1.90431,0.78822,2.21418
0.49767,0.0022,0.0012,0.00333,0.0216,0.01172,0.03262,8.24186,1.46726,0.79607,2.21616
0.49911,0.00383,0.00124,0.00331,0.03756,0.01214,0.03247,8.26571,2.56622,0.82946,2.21813
0.50055,0.0062,0.0011,0.0033,0.06071,0.01075,0.03231,8.28955,4.1721,0.73903,2.2201
0.50199,0.00275,0.0011,0.00328,0.02695,0.01076,0.03215,8.3134,1.86254,0.74337,2.22206
0.50343,0.00182,0.0011,0.00327,0.01786,0.01079,0.032,8.33725,1.24139,0.75007,2.22402
0.50487,0.00459,0.00123,0.00325,0.045,0.01203,0.03184,8.3611,3.14556,0.841,2.22597
0.50631,0.00366,0.00129,0.00323,0.03587,0.0126,0.03169,8.38494,2.52171,0.88597,2.22793
0.50775,0.0053,0.00114,0.00322,0.05193,0.01114,0.03154,8.40879,3.67152,0.78759,2.22987
0.50919,0.00345,0.00116,0.0032,0.03375,0.01133,0.03139,8.43264,2.40018,0.80589,2.23182
0.51063,0.00431,0.00118,0.00319,0.04224,0.0116,0.03124,8.45649,3.02069,0.82945,2.23376
0.51207,0.00408,0.0012,0.00317,0.03998,0.0118,0.03109,8.48033,2.87551,0.8486,2.23569
0.51351,0.00195,0.00119,0.00316,0.01907,0.01167,0.03094,8.5042,1.37899,0.84406,2.23762
0.51495,0.00358,0.00114,0.00314,0.03504,0.01116,0.03079,8.52805,2.54837,0.81174,2.23955
0.51639,0.0043,0.00117,0.00313,0.04214,0.01149,0.03065,8.55189,3.08162,0.84004,2.24147
0.51783,0.00501,0.00114,0.00311,0.04909,0.0112,0.0305,8.57574,3.60997,0.82364,2.24339
0.51927,0.00296,0.00123,0.0031,0.02898,0.012,0.03036,8.59959,2.14325,0.88757,2.2453
0.52071,0.00324,0.00115,0.00308,0.03176,0.01129,0.03022,8.62344,2.36191,0.83954,2.24721
0.52215,0.00215,0.00117,0.00307,0.02107,0.01145,0.03008,8.64729,1.57533,0.85607,2.24911
0.52359,0.00211,0.00115,0.00306,0.02063,0.01128,0.02994,8.67113,1.55146,0.84784,2.25101
0.52503,0.00457,0.00128,0.00304,0.04481,0.01257,0.0298,8.69498,3.38765,0.95049,2.2529
0.52647,0.00388,0.00129,0.00303,0.03801,0.01265,0.02966,8.71883,2.8893,0.96158,2.25479
0.52791,0.00189,0.00122,0.00301,0.0185,0.01198,0.02952,8.74268,1.41411,0.91544,2.25667
0.52935,0.00289,0.00132,0.003,0.0283,0.01292,0.02939,8.76654,2.17519,0.99258,2.25855
0.53079,0.00248,0.00113,0.00299,0.02426,0.01111,0.02925,8.79039,1.87461,0.85881,2.26042
0.53223,0.00212,0.0012,0.00297,0.02074,0.01174,0.02912,8.81424,1.61166,0.91217,2.26229
0.53367,0.00366,0.0012,0.00296,0.0359,0.01172,0.02899,8.83808,2.80419,0.91566,2.26415
0.53511,0.00061,0.00121,0.00295,0.00593,0.01187,0.02885,8.86193,0.46561,0.93192,2.26601
0.53655,0.00069,0.00117,0.00293,0.0068,0.01151,0.02872,8.88578,0.53685,0.90859,2.26786
0.53799,0.00221,0.00128,0.00292,0.0216,0.01252,0.02859,8.90963,1.71482,0.99394,2.2697
0.53943,0.00228,0.00119,0.00291,0.02234,0.01163,0.02846,8.93347,1.78281,0.92845,2.27154
0.54087,0.00444,0.00122,0.00289,0.04354,0.01195,0.02833,8.95732,3.49315,0.95872,2.27337
0.54231,0.00252,0.00123,0.00288,0.02469,0.01204,0.02821,8.98117,1.99119,0.97143,2.27519
0.54375,0.00414,0.00115,0.00287,0.04053,0.01125,0.02808,9.00502,3.28666,0.91189,2.27701
0.54519,0.00092,0.0012,0.00285,0.00904,0.01174,0.02795,9.02886,0.7373,0.95694,2.27882
0.54663,0.00214,0.00131,0.00284,0.02096,0.01288,0.02783,9.05273,1.71785,1.05535,2.28062
0.54807,0.00282,0.00121,0.00283,0.02762,0.0119,0.0277,9.07658,2.27574,0.9805,2.28242
0.54951,0.00281,0.00124,0.00282,0.02756,0.01215,0.02758,9.10042,2.28235,1.00615,2.2842
0.55095,0.00272,0.00115,0.0028,0.02663,0.01123,0.02746,9.12427,2.21689,0.93461,2.28599
0.55239,0.00264,0.00119,0.00279,0.02583,0.01161,0.02734,9.14812,2.1619,0.97177,2.28776
0.55383,0.00267,0.00132,0.00278,0.02617,0.01296,0.02722,9.17197,2.20151,1.09037,2.28953
0.55527,0.00286,0.00122,0.00277,0.02802,0.01192,0.0271,9.19582,2.36962,1.00787,2.29129
0.55671,0.00407,0.00122,0.00275,0.03989,0.01192,0.02698,9.21966,3.39067,1.01325,2.29305
0.55815,0.00541,0.00118,0.00274,0.05299,0.01155,0.02686,9.24351,4.52754,0.98651,2.29479
0.55959,0.00359,0.00116,0.00273,0.03518,0.01138,0.02674,9.26736,3.02172,0.977,2.29654
0.56103,0.00387,0.00126,0.00272,0.03792,0.01237,0.02662,9.29121,3.27346,1.06753,2.29827
0.56247,0.0046,0.00126,0.00271,0.04509,0.01239,0.02651,9.31507,3.9123,1.07501,2.3
0.56391,0.0014,0.00126,0.00269,0.01369,0.01233,0.02639,9.33892,1.19385,1.07578,2.30173
0.56535,0.00103,0.00116,0.00268,0.01005,0.0114,0.02628,9.36277,0.88122,0.99973,2.30344
0.56679,0.00146,0.00113,0.00267,0.01429,0.01106,0.02616,9.38661,1.25931,0.97409,2.30516
0.56823,0.00149,0.00116,0.00266,0.01458,0.01133,0.02605,9.41046,1.29093,1.00327,2.30686
0.56967,0.0034,0.00122,0.00265,0.03327,0.01194,0.02594,9.43431,2.9616,1.06279,2.30856
0.57111,0.00347,0.00125,0.00264,0.03397,0.01227,0.02583,9.45816,3.0384,1.09741,2.31025
0.57255,0.0013,0.00125,0.00262,0.01273,0.01224,0.02571,9.482,1.14418,1.10079,2.31194
0.57399,0.003,0.00128,0.00261,0.02941,0.01255,0.0256,9.50585,2.65796,1.13438,2.31362
0.57543,0.00194,0.00125,0.0026,0.01904,0.01226,0.02549,9.5297,1.72872,1.11321,2.31529
0.57687,0.0014,0.00117,0.00259,0.01376,0.01148,0.02539,9.55355,1.2557,1.04762,2.31696
0.57831,0.00323,0.00117,0.00258,0.0316,0.01143,0.02528,9.57739,2.89875,1.04839,2.31862
0.57976,0.00501,0.0012,0.00257,0.04909,0.01178,0.02517,9.60126,4.52497,1.08638,2.32028
0.5812,0.0023,0.00123,0.00256,0.02257,0.01206,0.02506,9.62511,2.09111,1.11733,2.32193
0.58264,0.00219,0.00117,0.00255,0.02149,0.01151,0.02496,9.64895,2.00111,1.07139,2.32357
0.58408,0.00181,0.00114,0.00254,0.01772,0.01116,0.02485,9.6728,1.6575,1.04443,2.32521
0.58552,0.00206,0.00109,0.00253,0.02021,0.01063,0.02475,9.69665,1.89997,0.99985,2.32685
0.58696,0.00269,0.00108,0.00252,0.02633,0.01056,0.02464,9.7205,2.48822,0.99799,2.32847
0.5884,0.00443,0.00106,0.00251,0.04342,0.01037,0.02454,9.74434,4.12267,0.98478,2.33009
0.58983,0.00056,0.00113,0.00249,0.00551,0.01111,0.02444,9.76819,0.52572,1.05985,2.33171
0.59127,0.00119,0.0012,0.00248,0.01165,0.01174,0.02433,9.79204,1.11666,1.12615,2.33331
0.59271,0.0007,0.00115,0.00247,0.00688,0.01125,0.02423,9.81589,0.66306,1.08377,2.33492
0.59415,0.00129,0.00114,0.00246,0.01266,0.01117,0.02413,9.83974,1.22595,1.08148,2.33651
0.59559,0.0033,0.0012,0.00245,0.0323,0.01175,0.02403,9.86358,3.14213,1.14278,2.3381
0.59704,0.00052,0.00118,0.00244,0.00513,0.01153,0.02393,9.88745,0.50183,1.12677,2.33969
0.59848,0.0027,0.00126,0.00243,0.02644,0.01234,0.02383,9.9113,2.59742,1.2122,2.34127
0.59992,0.00233,0.00114,0.00242,0.02287,0.01118,0.02374,9.93514,2.25727,1.10349,2.34284
0.60136,-0.00007,0.00111,0.00241,-0.00064,0.01089,0.02364,9.95899,-0.06364,1.08005,2.34441
0.6028,0.00009,0.00114,0.0024,0.00084,0.01119,0.02354,9.98284,0.08399,1.11471,2.34597
0.60424,0.00253,0.0012,0.00239,0.02483,0.01177,0.02344,10.00669,2.48621,1.17858,2.34752
0.60568,0.00192,0.0011,0.00238,0.01885,0.01078,0.02335,10.03053,1.89605,1.08487,2.34906
0.60712,0.00054,0.00115,0.00237,0.00527,0.01129,0.02325,10.05438,0.53242,1.14177,2.35061
0.60856,0.00049,0.00118,0.00236,0.00481,0.01155,0.02316,10.07823,0.4888,1.17344,2.35214
0.61,0.00088,0.00122,0.00235,0.00862,0.01198,0.02306,10.10208,0.87956,1.2228,2.35367
0.61144,0.00206,0.00113,0.00234,0.02022,0.0111,0.02297,10.12592,2.07292,1.13826,2.35519
0.61288,0.00205,0.00111,0.00234,0.02011,0.01088,0.02288,10.14979,2.07174,1.12118,2.35671
0.61432,0.00318,0.00119,0.00233,0.03113,0.01167,0.02278,10.17364,3.22168,1.2075,2.35822
0.61576,0.00135,0.00124,0.00232,0.01326,0.01213,0.02269,10.19748,1.37896,1.26154,2.35973
0.6172,0.00102,0.00118,0.00231,0.00995,0.01152,0.0226,10.22133,1.03907,1.20363,2.36123
0.61864,0.00303,0.00117,0.0023,0.02971,0.01143,0.02251,10.24518,3.11837,1.19996,2.36273
0.62008,0.00126,0.00112,0.00229,0.01239,0.01102,0.02242,10.26903,1.30625,1.16196,2.36422
0.62152,0.00359,0.00121,0.00228,0.03519,0.01184,0.02233,10.29287,3.72782,1.25404,2.36571
0.62296,0.00308,0.0012,0.00227,0.03013,0.01178,0.02224,10.31672,3.20675,1.25415,2.3672
0.6244,0.00132,0.00122,0.00226,0.01289,0.01199,0.02215,10.34057,1.37865,1.28227,2.36868
0.62584,0.00111,0.00123,0.00225,0.0109,0.01203,0.02206,10.36442,1.17141,1.29234,2.37016
0.62728,0.00134,0.00115,0.00224,0.01315,0.01122,0.02198,10.38827,1.41951,1.21056,2.37163
0.62872,-0.00038,0.00124,0.00223,-0.00376,0.01211,0.02189,10.41211,-0.4071,1.3129,2.3731
0.63016,0.00259,0.00111,0.00223,0.02532,0.01086,0.0218,10.43598,2.75806,1.18265,2.37457
0.6316,0.0022,0.00121,0.00222,0.0216,0.01185,0.02172,10.45983,2.36299,1.29651,2.37603
0.63304,0.00167,0.00121,0.00221,0.01633,0.01182,0.02163,10.48367,1.79463,1.29963,2.3775
0.63448,-0.00119,0.00113,0.0022,-0.0117,0.01102,0.02155,10.50752,-1.29227,1.21678,2.37895
0.63592,0.00112,0.00123,0.00219,0.01101,0.01203,0.02146,10.53137,1.22167,1.33428,2.38041
0.63736,0.00214,0.00119,0.00218,0.02096,0.01162,0.02138,10.55522,2.33562,1.29422,2.38186
0.6388,0.00116,0.00115,0.00217,0.01133,0.01128,0.0213,10.57906,1.26783,1.26232,2.38331
0.64024,0.00267,0.0012,0.00217,0.02618,0.01178,0.02121,10.60291,2.94269,1.32448,2.38476
0.64168,-0.00028,0.00124,0.00216,-0.00274,0.01212,0.02113,10.62676,-0.30931,1.36845,2.38621
0.64312,-0.00141,0.00122,0.00215,-0.0138,0.01196,0.02105,10.65061,-1.5649,1.35662,2.38765
0.64456,-0.00019,0.00125,0.00214,-0.0019,0.01223,0.02097,10.67445,-0.21606,1.39326,2.38909
0.646,0.00081,0.00118,0.00213,0.00794,0.0116,0.02089,10.69832,0.90881,1.32754,2.39053
0.64744,0.00258,0.0012,0.00212,0.0253,0.0118,0.02081,10.72217,2.90901,1.35661,2.39196
0.64888,0.00122,0.0012,0.00212,0.01193,0.01178,0.02073,10.74601,1.37773,1.35989,2.39339
0.65032,0.00123,0.00117,0.00211,0.01201,0.01145,0.02065,10.76986,1.39297,1.32819,2.39482