File: 2025/starling_2025/figures/experimental_comparison/saxs_scattering/experiment/e1a_36_146/mff_out.csv
#File Plotted Below: e1a_36_146.dat,,,,,,,,,,
,,,,,,,,,,
    #Fit from 0.01-0.15 with polymer MFF,,,,,,,,,,
#Initial search parameter for I0 = 0.0104623,,,,,,,,,,
#Initial search parameter for Rg = 30,,,,,,,,,,
#Initial search parameter for nu = 0.499881,,,,,,,,,,
#BestFit for I0 = 0.01233 +- inf,,,,,,,,,,
#BestFit for I(0)/I0 = 1.00000 +- inf,,,,,,,,,,
#BestFit for Rg = 37.12369 +- inf,,,,,,,,,,
#BestFit for nu = 0.60280 +- inf,,,,,,,,,,
#BestFit reduced chisquared = 1.58682,,,,,,,,,,
#-------------,,,,,,,,,,
#-------------,,,,,,,,,,
,,,,,,,,,,
    #q,I(q),Error,fit,I(q)/I0,Error/I0,fit/I0,qRg,((qRg)^2)I(q)/I0,((qRg)^2)*Error/I0,((qRg)^2)*fit/I0
0.01779,0.01087,0.00018,0.01067,0.88114,0.01446,0.86527,0.66035,0.38423,0.00631,0.37731
0.01916,0.01054,0.00017,0.01044,0.8548,0.01404,0.84624,0.71115,0.4323,0.0071,0.42797
0.02052,0.01016,0.00017,0.01019,0.82384,0.01366,0.8265,0.76195,0.47829,0.00793,0.47983
0.02189,0.01013,0.00016,0.00994,0.82128,0.01297,0.80615,0.81274,0.54249,0.00857,0.5325
0.02326,0.00987,0.00015,0.00969,0.80008,0.01232,0.7853,0.86354,0.59661,0.00919,0.5856
0.02463,0.00959,0.00015,0.00942,0.77767,0.01216,0.76405,0.91433,0.65013,0.01017,0.63875
0.026,0.0091,0.00015,0.00916,0.73797,0.0118,0.74251,0.96513,0.6874,0.01099,0.69163
0.02737,0.00887,0.00015,0.00889,0.71885,0.01184,0.72078,1.01592,0.74192,0.01222,0.74391
0.02873,0.00861,0.00014,0.00862,0.69772,0.01159,0.69895,1.06672,0.79393,0.01319,0.79532
0.0301,0.00857,0.00015,0.00835,0.69443,0.01177,0.6771,1.11751,0.86724,0.0147,0.84558
0.03147,0.00789,0.00014,0.00808,0.6396,0.01174,0.6553,1.16831,0.87302,0.01603,0.89445
0.03284,0.00777,0.00014,0.00782,0.63031,0.01157,0.63362,1.2191,0.93677,0.0172,0.94169
0.03421,0.0075,0.00014,0.00755,0.60834,0.01114,0.61213,1.2699,0.98103,0.01796,0.98715
0.03558,0.00713,0.00014,0.00729,0.57796,0.01106,0.59092,1.32069,1.00809,0.0193,1.03069
0.03694,0.00687,0.00014,0.00703,0.55707,0.01098,0.57003,1.37149,1.04784,0.02065,1.07222
0.03831,0.00653,0.00014,0.00678,0.52906,0.01098,0.54956,1.42228,1.07022,0.02221,1.1117
0.03968,0.00645,0.00013,0.00653,0.52277,0.01067,0.52957,1.47308,1.13439,0.02314,1.14914
0.04105,0.00613,0.00013,0.00629,0.49733,0.0106,0.51013,1.52387,1.1549,0.02462,1.18461
0.04242,0.00597,0.00013,0.00606,0.48382,0.01047,0.49128,1.57466,1.19966,0.02596,1.21816
0.04378,0.00558,0.00013,0.00583,0.45218,0.01034,0.47302,1.62546,1.19472,0.02731,1.24979
0.04515,0.00539,0.00012,0.00562,0.43658,0.01003,0.45537,1.67625,1.22672,0.02818,1.2795
0.04652,0.00516,0.00012,0.00541,0.41823,0.01003,0.43831,1.72705,1.24746,0.02992,1.30734
0.04789,0.00523,0.00012,0.0052,0.4239,0.01003,0.42186,1.77784,1.33983,0.0317,1.33336
0.04926,0.00468,0.00012,0.00501,0.37981,0.00983,0.406,1.82863,1.27006,0.03287,1.35763
0.05063,0.00465,0.00012,0.00482,0.37705,0.0096,0.39076,1.87942,1.33184,0.03391,1.38025
0.05199,0.00467,0.00012,0.00464,0.37834,0.0096,0.37612,1.93022,1.40961,0.03577,1.40132
0.05336,0.00455,0.00012,0.00447,0.36905,0.00959,0.36209,1.98101,1.44828,0.03764,1.42099
0.05473,0.0042,0.00012,0.0043,0.3402,0.0094,0.34868,2.0318,1.40442,0.03882,1.43941
0.0561,0.00422,0.00011,0.00414,0.34188,0.00913,0.33586,2.08259,1.48278,0.03961,1.45668
0.05747,0.00389,0.00011,0.00399,0.31555,0.00919,0.32362,2.13338,1.43618,0.04183,1.47291
0.05884,0.00405,0.00011,0.00385,0.32852,0.00913,0.31194,2.18418,1.56722,0.04354,1.48816
0.0602,0.00382,0.00011,0.00371,0.3095,0.00907,0.3008,2.23497,1.54597,0.04531,1.50251
0.06157,0.00347,0.00011,0.00358,0.28123,0.00884,0.29017,2.28576,1.46934,0.04618,1.51605
0.06294,0.00356,0.00011,0.00345,0.28898,0.00872,0.28004,2.33655,1.57766,0.04758,1.52884
0.06431,0.00321,0.00011,0.00334,0.26044,0.00872,0.27037,2.38734,1.48434,0.04967,1.54096
0.06568,0.00332,0.00011,0.00322,0.26945,0.0087,0.26116,2.43813,1.60171,0.05172,1.55248
0.06704,0.00329,0.00011,0.00311,0.26669,0.00851,0.25238,2.48892,1.65208,0.05273,1.56344
0.06841,0.00297,0.0001,0.00301,0.24079,0.0084,0.24401,2.53971,1.55311,0.05419,1.5739
0.06978,0.00266,0.0001,0.00291,0.21525,0.00841,0.23603,2.5905,1.44447,0.05646,1.58392
0.07115,0.00272,0.0001,0.00282,0.22037,0.00837,0.22842,2.64129,1.53738,0.05838,1.59355
0.07252,0.00277,0.0001,0.00273,0.2244,0.00817,0.22117,2.69207,1.62631,0.05923,1.60286
0.07388,0.00257,0.0001,0.00264,0.20868,0.0081,0.21425,2.74286,1.56995,0.06097,1.61187
0.07525,0.00262,0.0001,0.00256,0.21205,0.00812,0.20765,2.79365,1.65493,0.0634,1.62064
0.07662,0.00261,0.0001,0.00248,0.21181,0.00811,0.20136,2.84444,1.71368,0.06561,1.62917
0.07799,0.00233,0.0001,0.00241,0.18926,0.00794,0.19535,2.89523,1.58645,0.06658,1.63749
0.07936,0.00268,0.0001,0.00234,0.21721,0.00787,0.18961,2.94601,1.88518,0.06829,1.6456
0.08072,0.00217,0.0001,0.00227,0.17556,0.00787,0.18411,2.9968,1.57665,0.07072,1.65349
0.08209,0.00225,0.0001,0.00221,0.18257,0.00782,0.17885,3.04758,1.69563,0.07267,1.66115
0.08346,0.00222,0.0001,0.00214,0.17984,0.00778,0.17381,3.09837,1.72646,0.07464,1.66859
0.08483,0.00197,0.00009,0.00208,0.15974,0.00758,0.16899,3.14916,1.58414,0.07513,1.67587
0.0862,0.00222,0.00009,0.00203,0.17987,0.00766,0.16436,3.19994,1.8418,0.07846,1.683
0.08756,0.00186,0.00009,0.00197,0.15044,0.00762,0.15993,3.25073,1.58973,0.0805,1.69001
0.08893,0.002,0.00009,0.00192,0.16203,0.00751,0.15568,3.30151,1.76609,0.08185,1.69692
0.0903,0.0019,0.00009,0.00187,0.15387,0.00759,0.15161,3.3523,1.72917,0.08525,1.70374
0.09167,0.00193,0.0001,0.00182,0.15606,0.00781,0.1477,3.40308,1.80737,0.09049,1.71046
0.09304,0.00192,0.0001,0.00178,0.15534,0.00793,0.14394,3.45386,1.85303,0.09459,1.71709
0.0944,0.00191,0.0001,0.00173,0.15451,0.00804,0.14033,3.50465,1.89782,0.09875,1.72361
0.09577,0.00171,0.0001,0.00169,0.13881,0.00797,0.13686,3.55543,1.7547,0.10076,1.73002
0.09714,0.00164,0.0001,0.00165,0.13291,0.00806,0.13351,3.60621,1.72844,0.10481,1.73632
0.09851,0.00179,0.0001,0.00161,0.14508,0.00813,0.1303,3.65699,1.9403,0.10877,1.74254
0.09988,0.00148,0.0001,0.00157,0.12003,0.00781,0.1272,3.70777,1.65016,0.10733,1.7487
0.10124,0.00163,0.00009,0.00153,0.1321,0.00754,0.12422,3.75855,1.86616,0.10657,1.75482
0.10261,0.00158,0.00009,0.0015,0.12798,0.00742,0.12135,3.80934,1.8571,0.10773,1.76089
0.10398,0.00159,0.00009,0.00146,0.12872,0.00736,0.11858,3.86011,1.91806,0.10973,1.76693
0.10535,0.00159,0.00009,0.00143,0.12891,0.00735,0.11592,3.9109,1.97165,0.11239,1.77294
0.10672,0.00144,0.00009,0.0014,0.11635,0.00716,0.11334,3.96167,1.82617,0.1123,1.77891
0.10808,0.00136,0.00009,0.00137,0.11005,0.00738,0.11086,4.01245,1.77182,0.11888,1.78483
0.10945,0.00143,0.00009,0.00134,0.11578,0.00757,0.10846,4.06323,1.91147,0.12499,1.7907
0.11082,0.0014,0.00009,0.00131,0.11315,0.00726,0.10615,4.11401,1.915,0.12279,1.79653
0.11219,0.00121,0.00009,0.00128,0.09834,0.00699,0.10391,4.16478,1.70575,0.12121,1.80233
0.11355,0.00118,0.00009,0.00126,0.09592,0.00695,0.10175,4.21556,1.70452,0.12355,1.80813
0.11492,0.00143,0.00009,0.00123,0.11624,0.00691,0.09966,4.26634,2.11572,0.1257,1.81392
0.11629,0.00104,0.00009,0.0012,0.08467,0.00691,0.09764,4.31711,1.57803,0.12887,1.81972
0.11766,0.00148,0.00008,0.00118,0.12001,0.00677,0.09568,4.36789,2.28954,0.1291,1.82552
0.11903,0.00118,0.00008,0.00116,0.09603,0.00668,0.0938,4.41867,1.87504,0.13042,1.83133
0.12039,0.0013,0.00008,0.00113,0.10525,0.0067,0.09197,4.46944,2.1024,0.13374,1.83715
0.12176,0.00109,0.00008,0.00111,0.08865,0.0067,0.0902,4.52021,1.81139,0.13682,1.84297
0.12313,0.00116,0.00008,0.00109,0.09438,0.00656,0.08848,4.57099,1.97202,0.13712,1.84878
0.1245,0.00118,0.00008,0.00107,0.09571,0.0065,0.08682,4.62176,2.04436,0.13886,1.8546
0.12586,0.00132,0.00008,0.00105,0.10739,0.00653,0.08521,4.67253,2.3446,0.14248,1.86044
0.12723,0.0013,0.00008,0.00103,0.10574,0.0065,0.08365,4.7233,2.35894,0.14497,1.86629
0.1286,0.00097,0.00008,0.00101,0.07898,0.00669,0.08214,4.77408,1.80006,0.15241,1.87216
0.12997,0.00105,0.00008,0.001,0.08528,0.00679,0.08068,4.82485,1.98533,0.15808,1.87805
0.13133,0.00097,0.00008,0.00098,0.07871,0.00683,0.07925,4.87562,1.87108,0.16225,1.88395
0.1327,0.00115,0.00008,0.00096,0.09321,0.00684,0.07787,4.92638,2.26218,0.16595,1.88986
0.13407,0.00085,0.00008,0.00094,0.06871,0.00679,0.07653,4.97716,1.70201,0.1683,1.89578
0.13544,0.00108,0.00008,0.00093,0.08747,0.00683,0.07522,5.02793,2.21123,0.17273,1.90169
0.1368,0.00097,0.00008,0.00091,0.07868,0.00681,0.07396,5.07869,2.02947,0.17573,1.90759
0.13817,0.00104,0.00008,0.0009,0.08408,0.00681,0.07272,5.12946,2.21224,0.17907,1.91348
0.13954,0.00087,0.00008,0.00088,0.07045,0.00685,0.07153,5.18023,1.89052,0.18393,1.91936
0.14091,0.00089,0.00008,0.00087,0.07206,0.00674,0.07036,5.23099,1.97172,0.18443,1.92524
0.14227,0.00095,0.00008,0.00085,0.07735,0.0068,0.06922,5.28176,2.15781,0.18971,1.93112
0.14364,0.00073,0.00008,0.00084,0.05884,0.00675,0.06812,5.33252,1.67312,0.19184,1.93698
0.14501,0.00083,0.00008,0.00083,0.06739,0.00679,0.06704,5.38329,1.95304,0.19668,1.94284
0.14638,0.0008,0.00008,0.00081,0.06518,0.00666,0.06599,5.43405,1.92468,0.19666,1.94867
0.14774,0.00083,0.00008,0.0008,0.06763,0.00672,0.06497,5.48481,2.03447,0.20208,1.95448
0.14911,0.00111,0.00008,0.00079,0.08973,0.00675,0.06397,5.53558,2.74949,0.20687,1.96025
0.15048,0.0008,0.00008,0.00078,0.0645,0.00677,0.063,5.58634,2.01279,0.21138,1.96598
0.15185,0.00098,0.00008,0.00077,0.07958,0.00667,0.06205,5.6371,2.52869,0.21204,1.97168
0.15321,0.00081,0.00008,0.00075,0.06528,0.00662,0.06112,5.68786,2.11184,0.21429,1.97734
0.15458,0.00083,0.00008,0.00074,0.06728,0.00665,0.06021,5.73862,2.21568,0.21915,1.98296
0.15595,0.00071,0.00008,0.00073,0.05761,0.0067,0.05933,5.78938,1.93107,0.22446,1.98854
0.15732,0.00072,0.00008,0.00072,0.05836,0.00657,0.05847,5.84014,1.99033,0.22397,1.99408
0.15868,0.0007,0.00008,0.00071,0.05695,0.00656,0.05762,5.8909,1.97622,0.22779,1.99957
0.16005,0.0008,0.00008,0.0007,0.06501,0.00654,0.05679,5.94165,2.29503,0.23082,2.00501
0.16142,0.00084,0.00008,0.00069,0.06834,0.00654,0.05599,5.99241,2.45413,0.23494,2.01039
0.16278,0.00073,0.00008,0.00068,0.05929,0.00645,0.05519,6.04317,2.16542,0.23573,2.01571
0.16415,0.00073,0.00008,0.00067,0.05883,0.00643,0.05442,6.09392,2.18479,0.2388,2.02096
0.16552,0.00075,0.00008,0.00066,0.06075,0.00646,0.05366,6.14468,2.29367,0.24395,2.02615
0.16689,0.00073,0.00008,0.00065,0.05887,0.00648,0.05292,6.19543,2.25976,0.24877,2.03129
0.16825,0.00066,0.00008,0.00064,0.0537,0.00637,0.05219,6.24618,2.09492,0.24838,2.03638
0.16962,0.00063,0.00008,0.00064,0.05102,0.00634,0.05148,6.29694,2.02311,0.25126,2.04142
0.17099,0.00069,0.00008,0.00063,0.0563,0.00637,0.05079,6.34769,2.26851,0.25672,2.04642
0.17235,0.00064,0.00008,0.00062,0.05225,0.00646,0.05011,6.39844,2.13927,0.26446,2.05139
0.17372,0.00074,0.00008,0.00061,0.0604,0.00634,0.04944,6.44919,2.51202,0.26377,2.05631
0.17509,0.00068,0.00008,0.0006,0.05475,0.00629,0.04879,6.49994,2.31326,0.26563,2.06121
0.17646,0.00055,0.00008,0.00059,0.0446,0.0063,0.04815,6.55069,1.91405,0.2703,2.06607
0.17782,0.0008,0.00008,0.00059,0.06461,0.00636,0.04752,6.60144,2.81584,0.27707,2.0709
0.17919,0.00061,0.00008,0.00058,0.04971,0.0063,0.04691,6.65218,2.19987,0.27898,2.07571
0.18056,0.0007,0.00008,0.00057,0.05647,0.00624,0.04631,6.70293,2.53709,0.28022,2.08049
0.18192,0.00065,0.00008,0.00056,0.05292,0.00627,0.04572,6.75368,2.4136,0.28587,2.08525
0.18329,0.00062,0.00008,0.00056,0.05049,0.00625,0.04514,6.80442,2.33787,0.28931,2.08999
0.18466,0.00059,0.00008,0.00055,0.04782,0.00625,0.04457,6.85516,2.24703,0.29353,2.0947
0.18602,0.00063,0.00008,0.00054,0.05098,0.0062,0.04402,6.90591,2.43114,0.2959,2.0994
0.18739,0.00071,0.00008,0.00054,0.05716,0.00624,0.04348,6.95665,2.76612,0.3021,2.10407
0.18876,0.00063,0.00008,0.00053,0.05087,0.00621,0.04294,7.00739,2.49803,0.30499,2.10872
0.19012,0.00061,0.00008,0.00052,0.04935,0.00614,0.04242,7.05813,2.45843,0.30608,2.11335
0.19149,0.00046,0.00008,0.00052,0.03698,0.00614,0.04191,7.10887,1.86866,0.31044,2.11795
0.19286,0.00059,0.00008,0.00051,0.04751,0.00615,0.04141,7.15961,2.43555,0.31524,2.12254
0.19423,0.00052,0.00008,0.0005,0.04239,0.00616,0.04091,7.21035,2.20393,0.32002,2.1271
0.19559,0.0006,0.00008,0.0005,0.04876,0.00615,0.04043,7.26109,2.5706,0.32427,2.13165
0.19696,0.00057,0.00007,0.00049,0.0462,0.00607,0.03996,7.31183,2.46986,0.32435,2.13618
0.19833,0.00035,0.00008,0.00049,0.02821,0.00609,0.03949,7.36256,1.529,0.33021,2.1407
0.19969,0.0004,0.00007,0.00048,0.03242,0.00607,0.03903,7.4133,1.78179,0.33346,2.1452
0.20106,0.00047,0.00008,0.00048,0.03775,0.0061,0.03859,7.46403,2.10301,0.3401,2.14968
0.20243,0.00052,0.00007,0.00047,0.04211,0.00605,0.03815,7.51477,2.37795,0.34183,2.15414
0.20379,0.00039,0.00007,0.00047,0.03129,0.00602,0.03771,7.5655,1.7912,0.34479,2.15858
0.20516,0.0005,0.00007,0.00046,0.04048,0.00603,0.03729,7.61623,2.34791,0.34991,2.16301
0.20652,0.00053,0.00007,0.00045,0.04314,0.00605,0.03687,7.66696,2.53581,0.35583,2.16741
0.20789,0.00049,0.00007,0.00045,0.03941,0.00598,0.03646,7.71769,2.3474,0.35601,2.17181
0.20926,0.00038,0.00007,0.00044,0.0311,0.00597,0.03606,7.76842,1.87662,0.36001,2.17618
0.21062,0.00048,0.00007,0.00044,0.03857,0.00598,0.03567,7.81915,2.35838,0.36584,2.18054
0.21199,0.00044,0.00007,0.00044,0.03555,0.00597,0.03528,7.86988,2.20177,0.36997,2.18488
0.21336,0.00037,0.00007,0.00043,0.0296,0.00589,0.0349,7.9206,1.8567,0.36978,2.18921
0.21472,0.00044,0.00007,0.00043,0.03564,0.00593,0.03452,7.97133,2.26438,0.37683,2.19351
0.21609,0.00042,0.00007,0.00042,0.03424,0.00606,0.03415,8.02206,2.20361,0.38981,2.1978
0.21746,0.00035,0.00008,0.00042,0.02833,0.00629,0.03379,8.07278,1.84599,0.40972,2.20207
0.21882,0.00043,0.00008,0.00041,0.03457,0.00636,0.03343,8.1235,2.28123,0.41946,2.20632
0.22019,0.00044,0.00008,0.00041,0.03589,0.00645,0.03308,8.17423,2.39818,0.43097,2.21055
0.22156,0.00054,0.00008,0.0004,0.04383,0.00656,0.03274,8.22495,2.96533,0.44409,2.21476
0.22292,0.00052,0.00008,0.0004,0.04221,0.00666,0.0324,8.27567,2.89091,0.4564,2.21895
0.22429,0.0003,0.00008,0.0004,0.02401,0.00672,0.03207,8.32638,1.66487,0.46579,2.22313
0.22565,0.00048,0.00008,0.00039,0.03887,0.00639,0.03174,8.3771,2.7276,0.44852,2.22728
0.22702,0.00048,0.00008,0.00039,0.03927,0.00629,0.03142,8.42782,2.7893,0.44654,2.23143
0.22839,0.00044,0.00008,0.00038,0.03555,0.00628,0.0311,8.47854,2.55584,0.45135,2.23555
0.22975,0.00041,0.00008,0.00038,0.03345,0.00617,0.03079,8.52925,2.4335,0.4489,2.23965
0.23112,0.0004,0.00008,0.00038,0.03272,0.00615,0.03048,8.57997,2.40855,0.45264,2.24373
0.23248,0.00036,0.00008,0.00037,0.02939,0.00609,0.03018,8.63068,2.18918,0.45351,2.24779
0.23385,0.00041,0.00008,0.00037,0.03324,0.0061,0.02988,8.68139,2.50536,0.45993,2.25182
0.23522,0.00035,0.00007,0.00036,0.02871,0.00603,0.02958,8.73211,2.18882,0.45985,2.25584
0.23658,0.00052,0.00007,0.00036,0.0419,0.00602,0.0293,8.78282,3.2321,0.46438,2.25983
0.23795,0.00033,0.00007,0.00036,0.02698,0.00598,0.02901,8.83353,2.1051,0.46663,2.2638
0.23931,0.00038,0.00007,0.00035,0.03105,0.00598,0.02873,8.88423,2.45067,0.47232,2.26774
0.24068,0.00033,0.00007,0.00035,0.02707,0.00596,0.02845,8.93494,2.16134,0.47573,2.27165
0.24205,0.0004,0.00007,0.00035,0.03263,0.00587,0.02818,8.98565,2.63443,0.4741,2.27553
0.24341,0.00025,0.00007,0.00034,0.02049,0.0059,0.02791,9.03635,1.67316,0.48173,2.27938
0.24478,0.00024,0.00007,0.00034,0.01964,0.00589,0.02765,9.08706,1.62149,0.48654,2.2832
0.24614,0.00035,0.00007,0.00034,0.02808,0.00589,0.02739,9.13776,2.34431,0.49209,2.28699
0.24751,0.00032,0.00007,0.00033,0.02632,0.00578,0.02713,9.18846,2.22203,0.48834,2.29075
0.24888,0.00042,0.00007,0.00033,0.03386,0.00577,0.02688,9.23917,2.89025,0.49229,2.29448
0.25024,0.00059,0.00007,0.00033,0.04768,0.00584,0.02663,9.28987,4.11452,0.50378,2.29818
0.25161,0.00034,0.00007,0.00033,0.02723,0.0058,0.02638,9.34057,2.37551,0.50626,2.30185
0.25297,0.00041,0.00007,0.00032,0.03301,0.00574,0.02614,9.39126,2.91096,0.50581,2.30549
0.25434,0.00029,0.00007,0.00032,0.02379,0.0057,0.0259,9.44196,2.12081,0.50834,2.3091
0.2557,0.00024,0.00007,0.00032,0.01971,0.00566,0.02567,9.49266,1.77603,0.51029,2.31269
0.25707,0.00045,0.00007,0.00031,0.03675,0.00568,0.02543,9.54335,3.34681,0.5176,2.31625
0.25843,0.00036,0.00007,0.00031,0.02943,0.00562,0.0252,9.59405,2.70871,0.51734,2.31978
0.2598,0.00038,0.00007,0.00031,0.03048,0.00559,0.02498,9.64474,2.83484,0.51976,2.32329
0.26117,0.00029,0.00007,0.00031,0.02312,0.0056,0.02475,9.69543,2.1734,0.52596,2.32676
0.26253,0.00044,0.00007,0.0003,0.03553,0.0056,0.02453,9.74612,3.37489,0.53168,2.33021
0.2639,0.00037,0.00007,0.0003,0.03038,0.00555,0.02431,9.79681,2.91558,0.53271,2.33364
0.26526,0.0003,0.00007,0.0003,0.02435,0.00554,0.0241,9.8475,2.36155,0.5369,2.33703
0.26663,0.00038,0.00007,0.00029,0.03054,0.00557,0.02389,9.89819,2.99212,0.54532,2.3404
0.26799,0.00045,0.00007,0.00029,0.03655,0.00556,0.02368,9.94887,3.61771,0.55006,2.34374
0.26936,0.00041,0.00007,0.00029,0.03332,0.00549,0.02347,9.99956,3.33132,0.54911,2.34706
0.27072,0.00024,0.00007,0.00029,0.01939,0.00548,0.02327,10.05024,1.95825,0.55346,2.35034
0.27209,0.00037,0.00007,0.00028,0.02994,0.00549,0.02307,10.10093,3.0543,0.55975,2.3536
0.27345,0.00045,0.00007,0.00028,0.03643,0.00551,0.02287,10.15161,3.75463,0.56779,2.35683
0.27482,0.00031,0.00007,0.00028,0.02527,0.00543,0.02267,10.20229,2.63077,0.56495,2.36003
0.27618,0.00033,0.00007,0.00028,0.02684,0.00544,0.02248,10.25297,2.82124,0.57229,2.36322
0.27755,0.00037,0.00007,0.00027,0.03,0.00546,0.02229,10.30364,3.18547,0.57937,2.36639
0.27891,0.00041,0.00007,0.00027,0.03305,0.00546,0.0221,10.35432,3.54317,0.58522,2.36953
0.28028,0.00033,0.00007,0.00027,0.02681,0.00542,0.02192,10.405,2.90222,0.58716,2.37266
0.28164,0.00027,0.00007,0.00027,0.0216,0.00538,0.02173,10.45567,2.36139,0.58808,2.37578
0.28301,0.00041,0.00007,0.00027,0.03341,0.00538,0.02155,10.50635,3.68795,0.59428,2.37888
0.28437,0.00029,0.00007,0.00026,0.02372,0.00541,0.02137,10.55702,2.64365,0.60343,2.38197
0.28574,0.00026,0.00007,0.00026,0.02139,0.0054,0.0212,10.60769,2.4074,0.60734,2.38505
0.2871,0.0004,0.00007,0.00026,0.03247,0.00538,0.02102,10.65836,3.68824,0.61086,2.38812
0.28847,0.00027,0.00007,0.00026,0.02222,0.00534,0.02085,10.70903,2.54822,0.61271,2.39117
0.28983,0.00036,0.00007,0.00026,0.02919,0.00536,0.02068,10.75969,3.37909,0.62057,2.39421
0.2912,0.0003,0.00007,0.00025,0.02445,0.00536,0.02051,10.81036,2.85724,0.62684,2.39724
0.29256,0.00031,0.00007,0.00025,0.02502,0.00532,0.02035,10.86103,2.9517,0.62804,2.40025
0.29393,0.00031,0.00007,0.00025,0.02483,0.00531,0.02018,10.91169,2.95635,0.63278,2.40324
0.29529,0.00025,0.00007,0.00025,0.02045,0.00532,0.02002,10.96235,2.45808,0.63974,2.40621
0.29666,0.00035,0.00007,0.00025,0.02827,0.00533,0.01986,11.01301,3.42884,0.64628,2.40917
0.29802,0.00033,0.00006,0.00024,0.02672,0.00525,0.01971,11.06367,3.27115,0.64244,2.41211
0.29939,0.00023,0.00007,0.00024,0.01895,0.00528,0.01955,11.11433,2.34126,0.65189,2.41502
0.30075,0.00023,0.00006,0.00024,0.01863,0.00526,0.0194,11.16499,2.32283,0.65604,2.41792
0.30212,0.00033,0.00007,0.00024,0.02647,0.00528,0.01924,11.21565,3.32915,0.66412,2.42079
0.30348,0.00031,0.00006,0.00024,0.0253,0.00524,0.01909,11.2663,3.21121,0.66514,2.42364
0.30484,0.00025,0.00006,0.00023,0.02021,0.00522,0.01895,11.31695,2.58801,0.66858,2.42647
0.30621,0.00023,0.00006,0.00023,0.01855,0.00524,0.0188,11.36761,2.3967,0.67739,2.42927
0.30757,0.00036,0.00006,0.00023,0.02891,0.00521,0.01865,11.41826,3.76914,0.67932,2.43205
0.30894,0.00028,0.00006,0.00023,0.02247,0.00521,0.01851,11.46891,2.95612,0.6851,2.4348
0.3103,0.00025,0.00006,0.00023,0.0205,0.0052,0.01837,11.51956,2.72029,0.68974,2.43753
0.31167,0.0003,0.00006,0.00022,0.02421,0.00519,0.01823,11.5702,3.24163,0.69438,2.44023
0.31303,0.00031,0.00006,0.00022,0.02488,0.00521,0.01809,11.62085,3.36053,0.70293,2.4429
0.31439,0.00028,0.00006,0.00022,0.02295,0.00516,0.01795,11.6715,3.12682,0.70253,2.44554
0.31576,0.00034,0.00006,0.00022,0.02793,0.00516,0.01782,11.72214,3.8375,0.70923,2.44816
0.31712,0.00029,0.00006,0.00022,0.02374,0.00516,0.01768,11.77278,3.28966,0.71456,2.45075
0.31849,0.00035,0.00006,0.00022,0.02873,0.00516,0.01755,11.82342,4.01657,0.72148,2.45332
0.31985,0.00031,0.00006,0.00021,0.02506,0.00514,0.01742,11.87406,3.53294,0.72418,2.45586
0.32122,0.00032,0.00006,0.00021,0.0263,0.00512,0.01729,11.9247,3.7397,0.72749,2.45837
0.32258,0.00019,0.00006,0.00021,0.01501,0.00511,0.01716,11.97534,2.1531,0.73293,2.46085
0.32394,0.0002,0.00006,0.00021,0.01635,0.00512,0.01703,12.02597,2.36506,0.74047,2.46331
0.32531,0.0002,0.00006,0.00021,0.01611,0.00509,0.01691,12.0766,2.34972,0.74204,2.46575
0.32667,0.00033,0.00006,0.00021,0.02637,0.00505,0.01678,12.12724,3.8779,0.74314,2.46818
0.32803,0.0003,0.00006,0.00021,0.02433,0.00505,0.01666,12.17787,3.60748,0.74851,2.47059
0.3294,0.00029,0.00006,0.0002,0.02363,0.0051,0.01654,12.2285,3.53356,0.76308,2.47302
0.33076,0.00029,0.00006,0.0002,0.02317,0.00505,0.01642,12.27913,3.49302,0.76072,2.47545
0.33213,0.0003,0.00006,0.0002,0.02413,0.00504,0.0163,12.32975,3.66774,0.76659,2.4779
0.33349,0.00034,0.00006,0.0002,0.02741,0.00505,0.01618,12.38038,4.20185,0.7742,2.48039
0.33485,0.00035,0.00006,0.0002,0.02825,0.00504,0.01607,12.431,4.36471,0.77953,2.48292
0.33622,0.00012,0.00006,0.0002,0.00944,0.00504,0.01595,12.48162,1.47025,0.78482,2.48549
0.33758,0.0003,0.00006,0.0002,0.02442,0.005,0.01584,12.53225,3.83492,0.78557,2.48813
0.33894,0.00025,0.00006,0.00019,0.01989,0.00502,0.01573,12.58286,3.14978,0.79537,2.49083
0.34031,0.0003,0.00006,0.00019,0.02435,0.00501,0.01562,12.63349,3.88571,0.79989,2.4936
0.34167,0.00024,0.00006,0.00019,0.0197,0.00519,0.01552,12.6841,3.16928,0.83432,2.49645
0.34303,0.00032,0.00007,0.00019,0.02596,0.0053,0.01541,12.73472,4.21028,0.8597,2.49938
0.3444,0.00024,0.00007,0.00019,0.01949,0.00562,0.01531,12.78533,3.1866,0.91862,2.50241
0.34576,0.00026,0.00007,0.00019,0.02137,0.00582,0.01521,12.83594,3.52096,0.9584,2.50552
0.34712,0.00014,0.00007,0.00019,0.01095,0.00599,0.01511,12.88655,1.81828,0.99442,2.50873
0.34849,0.00021,0.00007,0.00019,0.01664,0.00606,0.01501,12.93717,2.78433,1.01422,2.51205
0.34985,0.00026,0.00007,0.00018,0.02119,0.00598,0.01491,12.98777,3.57411,1.00882,2.51548
0.35121,0.00032,0.00007,0.00018,0.0256,0.00591,0.01482,13.03838,4.35216,1.00419,2.51902
0.35258,0.00022,0.00007,0.00018,0.0178,0.00588,0.01472,13.08899,3.05014,1.00805,2.52268
0.35394,0.00022,0.00007,0.00018,0.0179,0.00577,0.01463,13.13959,3.09122,0.99687,2.52648
0.3553,0.00032,0.00007,0.00018,0.02599,0.00579,0.01454,13.19019,4.52093,1.00723,2.53041
0.35667,0.00028,0.00007,0.00018,0.02248,0.00576,0.01446,13.24079,3.94165,1.01066,2.53448
0.35803,0.00033,0.00007,0.00018,0.02651,0.00578,0.01437,13.29139,4.68336,1.02053,2.53871
0.35939,0.00025,0.00007,0.00018,0.02012,0.00572,0.01429,13.34199,3.58182,1.01788,2.54309
0.36076,0.00025,0.00007,0.00018,0.01992,0.00567,0.0142,13.39259,3.57314,1.0177,2.54765
0.36212,0.00022,0.00007,0.00017,0.01817,0.00572,0.01412,13.44318,3.28354,1.03454,2.55237
0.36348,0.00019,0.00007,0.00017,0.01534,0.00572,0.01404,13.49378,2.79355,1.04119,2.55729
0.36484,0.00014,0.00007,0.00017,0.01099,0.0057,0.01397,13.54437,2.01586,1.04601,2.56239
0.36621,0.0003,0.00007,0.00017,0.02426,0.00569,0.01389,13.59496,4.48399,1.05072,2.56769
0.36757,0.00022,0.00007,0.00017,0.01787,0.00567,0.01382,13.64554,3.3272,1.05548,2.57321
0.36893,0.00021,0.00007,0.00017,0.01721,0.00569,0.01375,13.69613,3.22769,1.0669,2.57896
0.37029,0.00027,0.00007,0.00017,0.0217,0.00564,0.01368,13.74672,4.10129,1.06619,2.58495
0.37166,0.00024,0.00007,0.00017,0.01972,0.00562,0.01361,13.7973,3.75426,1.06932,2.5912
0.37302,0.00012,0.00007,0.00017,0.01012,0.00561,0.01355,13.84789,1.93998,1.07565,2.59771
0.37438,0.00031,0.00007,0.00017,0.02512,0.00565,0.01348,13.89847,4.8533,1.09064,2.6045
0.37575,0.00028,0.00007,0.00017,0.02248,0.00562,0.01342,13.94905,4.37457,1.09444,2.61159
0.37711,0.00015,0.00007,0.00016,0.01243,0.00562,0.01336,13.99962,2.43596,1.10229,2.61898
0.37847,0.00016,0.00007,0.00016,0.01261,0.00564,0.01331,14.0502,2.48909,1.11276,2.6267
0.37983,0.00016,0.00007,0.00016,0.013,0.00565,0.01325,14.10077,2.58481,1.12344,2.63476
0.38119,0.00019,0.00007,0.00016,0.01537,0.00566,0.0132,14.15135,3.07736,1.13288,2.64317
0.38256,0.00017,0.00007,0.00016,0.01351,0.00565,0.01315,14.20192,2.72473,1.13927,2.65195
0.38392,0.00014,0.00007,0.00016,0.01121,0.00567,0.0131,14.25249,2.27796,1.15104,2.6611
0.38528,0.00015,0.00007,0.00016,0.01232,0.00571,0.01305,14.30306,2.52009,1.16802,2.67066
0.38664,0.00028,0.00007,0.00016,0.0225,0.0057,0.01301,14.35362,4.63644,1.17356,2.68062
0.38801,0.00025,0.00007,0.00016,0.02008,0.00567,0.01297,14.40419,4.16691,1.17717,2.69101
0.38937,0.00013,0.00007,0.00016,0.01068,0.00564,0.01293,14.45475,2.23216,1.17918,2.70185
0.39073,0.00024,0.00007,0.00016,0.01952,0.00571,0.01289,14.50531,4.10729,1.20039,2.71314
0.39209,0.00015,0.00007,0.00016,0.01218,0.00572,0.01286,14.55588,2.58082,1.21223,2.72491
0.39345,0.00012,0.00007,0.00016,0.00959,0.0057,0.01283,14.60643,2.04502,1.21507,2.73716
0.39482,0.00001,0.00007,0.00016,0.00057,0.00567,0.0128,14.65699,0.12253,1.21774,2.74992
0.39618,0.00008,0.00007,0.00016,0.00678,0.00572,0.01277,14.70755,1.46693,1.23687,2.76319
0.39754,0.00012,0.00007,0.00016,0.00969,0.00577,0.01275,14.7581,2.11117,1.25588,2.777
0.3989,0.00016,0.00007,0.00016,0.01268,0.00571,0.01273,14.80865,2.78058,1.25277,2.79135
0.40026,0.0003,0.00007,0.00016,0.02462,0.00566,0.01271,14.8592,5.43589,1.25053,2.80626
0.40162,0.00025,0.00007,0.00016,0.02004,0.00575,0.01269,14.90975,4.45478,1.27836,2.82174
0.40299,0.00026,0.00007,0.00016,0.02113,0.00579,0.01268,14.9603,4.7297,1.29582,2.83781
0.40435,0.00027,0.00007,0.00016,0.02175,0.00575,0.01267,15.01084,4.90119,1.29622,2.85449
0.40571,0.00014,0.00007,0.00016,0.01121,0.00571,0.01266,15.06139,2.54365,1.29601,2.87179
0.40707,0.00017,0.00007,0.00016,0.01364,0.00576,0.01265,15.11193,3.1148,1.31442,2.88973
0.40843,0.00017,0.00007,0.00016,0.01363,0.00574,0.01265,15.16247,3.13457,1.31924,2.90831
0.40979,0.00023,0.00007,0.00016,0.01896,0.00569,0.01265,15.21301,4.38711,1.31753,2.92757
0.41115,0.00024,0.00007,0.00016,0.01984,0.0057,0.01265,15.26354,4.62266,1.32886,2.94752
0.41251,0.00008,0.00007,0.00016,0.0063,0.0057,0.01266,15.31408,1.47655,1.33653,2.96817
0.41388,0.00023,0.00007,0.00016,0.01829,0.00575,0.01266,15.36461,4.31841,1.35664,2.98955
0.41524,0.0001,0.00007,0.00016,0.00809,0.0057,0.01267,15.41514,1.92358,1.35336,3.01166
0.4166,0.00018,0.00007,0.00016,0.01439,0.00569,0.01269,15.46567,3.44118,1.36145,3.03454
0.41796,0.00018,0.00007,0.00016,0.01464,0.00574,0.0127,15.5162,3.52571,1.38292,3.05819
0.41932,0.00011,0.00007,0.00016,0.00867,0.00573,0.01272,15.56673,2.10125,1.38954,3.08264
0.42068,0.00023,0.00007,0.00016,0.0187,0.00575,0.01274,15.61725,4.56138,1.40225,3.10791
0.42204,0.00018,0.00007,0.00016,0.0143,0.00572,0.01277,15.66777,3.50943,1.40378,3.13401
0.4234,0.00009,0.00007,0.00016,0.00715,0.00573,0.01279,15.71829,1.76531,1.41494,3.16098
0.42476,0.00014,0.00007,0.00016,0.01156,0.00578,0.01282,15.76881,2.87465,1.43662,3.18883
0.42612,0.00009,0.00007,0.00016,0.00698,0.00575,0.01286,15.81933,1.74642,1.43831,3.21759
0.42749,0.00008,0.00007,0.00016,0.00615,0.00572,0.01289,15.86984,1.54786,1.44054,3.24728
0.42885,0.00012,0.00007,0.00016,0.00957,0.00574,0.01293,15.92036,2.42513,1.45451,3.27792
0.43021,0.00007,0.00007,0.00016,0.00603,0.00578,0.01298,15.97087,1.53926,1.47401,3.30954
0.43157,0.00012,0.00007,0.00016,0.01001,0.0058,0.01302,16.02138,2.56979,1.48863,3.34216
0.43293,0.00013,0.00007,0.00016,0.01062,0.00576,0.01307,16.07189,2.74375,1.4869,3.3758
0.43429,0.00015,0.00007,0.00016,0.01214,0.00575,0.01312,16.1224,3.15645,1.49473,3.4105
0.43565,0.00016,0.00007,0.00016,0.01259,0.00579,0.01318,16.1729,3.29406,1.51427,3.44627
0.43701,0.00031,0.00007,0.00016,0.02533,0.0058,0.01323,16.2234,6.66763,1.52749,3.48314
0.43837,0.00026,0.00007,0.00016,0.02116,0.00575,0.0133,16.27391,5.60388,1.52228,3.52114
0.43973,0.00026,0.00007,0.00016,0.02068,0.00576,0.01336,16.32441,5.51103,1.53598,3.56029
0.44109,0.00009,0.00007,0.00017,0.00702,0.00581,0.01343,16.3749,1.88269,1.55733,3.60063
0.44245,0.00001,0.00007,0.00017,0.00097,0.00579,0.0135,16.4254,0.26093,1.56116,3.64217
0.44381,0.0002,0.00007,0.00017,0.01648,0.00579,0.01357,16.47589,4.47267,1.57102,3.68495
0.44517,0.00022,0.00007,0.00017,0.01801,0.00575,0.01365,16.52638,4.9189,1.57049,3.729
0.44653,0.00009,0.00007,0.00017,0.00718,0.00582,0.01374,16.57687,1.97293,1.59986,3.77434
0.44789,0.0002,0.00007,0.00017,0.01627,0.00584,0.01382,16.62736,4.49841,1.61458,3.821
0.44925,0.00035,0.00007,0.00017,0.02855,0.00581,0.01391,16.67785,7.94093,1.61675,3.86901
0.45061,0.00017,0.00007,0.00017,0.01339,0.00578,0.014,16.72833,3.74747,1.61619,3.91842
0.45197,0.0002,0.00007,0.00017,0.01656,0.00578,0.0141,16.77881,4.66325,1.62688,3.96923
0.45333,0.00017,0.00007,0.00018,0.01371,0.00585,0.0142,16.8293,3.88249,1.65732,4.0215
0.45469,0.00015,0.00007,0.00018,0.01241,0.00584,0.0143,16.87977,3.53506,1.6641,4.07524
0.45605,0.00019,0.00007,0.00018,0.01503,0.00579,0.01441,16.93025,4.30762,1.65988,4.1305
0.45741,0.00018,0.00007,0.00018,0.01458,0.00585,0.01452,16.98072,4.20432,1.68733,4.1873
0.45877,0.00022,0.00007,0.00018,0.01757,0.00586,0.01464,17.0312,5.09731,1.69953,4.24568
0.46013,0.00012,0.00007,0.00018,0.01007,0.00583,0.01476,17.08167,2.93793,1.70023,4.30566
0.46149,0.00022,0.00007,0.00018,0.01782,0.00579,0.01488,17.13214,5.22948,1.70051,4.36729
0.46285,0.0001,0.00007,0.00019,0.00802,0.00587,0.01501,17.1826,2.36773,1.73423,4.43059
0.46421,0.00008,0.00007,0.00019,0.00687,0.0059,0.01514,17.23307,2.04022,1.75118,4.49558
0.46557,0.00025,0.00007,0.00019,0.02064,0.00588,0.01527,17.28353,6.1647,1.75685,4.5623
0.46693,0.00017,0.00008,0.00019,0.01401,0.00613,0.01541,17.33399,4.20862,1.84249,4.63078
0.46828,0.00004,0.00008,0.00019,0.00335,0.00646,0.01556,17.38445,1.01233,1.95144,4.70106
0.46964,-0.00005,0.00008,0.00019,-0.00407,0.00672,0.0157,17.43491,-1.23757,2.04367,4.77315
0.471,0.0001,0.00009,0.0002,0.0084,0.0069,0.01585,17.48537,2.56933,2.10955,4.8471
0.47236,0.00022,0.00009,0.0002,0.01808,0.00699,0.01601,17.53582,5.55956,2.14971,4.92293
0.47372,0.00013,0.00009,0.0002,0.01072,0.00721,0.01617,17.58627,3.31672,2.2305,5.00068
0.47508,0.00003,0.00009,0.0002,0.0028,0.00741,0.01633,17.63672,0.87035,2.30339,5.08039
0.47644,0.00024,0.00009,0.0002,0.01984,0.00765,0.0165,17.68717,6.2053,2.39454,5.16209
0.4778,0.00013,0.0001,0.00021,0.01058,0.00772,0.01667,17.73761,3.33017,2.42859,5.24581
0.47916,0.00007,0.0001,0.00021,0.00555,0.00792,0.01685,17.78806,1.75698,2.50742,5.3316
0.48052,0.00015,0.0001,0.00021,0.01199,0.00811,0.01703,17.8385,3.81531,2.57926,5.41949
0.48187,0.00007,0.0001,0.00021,0.00552,0.00829,0.01722,17.88894,1.76594,2.65342,5.50952
0.48323,0.00009,0.00011,0.00021,0.00727,0.00851,0.01741,17.93938,2.34018,2.73997,5.60172
0.48459,0.00018,0.0001,0.00022,0.01484,0.00846,0.0176,17.98981,4.80376,2.73746,5.69614
0.48595,0.00012,0.00011,0.00022,0.00945,0.00858,0.0178,18.04024,3.07417,2.7919,5.79281
0.48731,0.00021,0.00011,0.00022,0.01704,0.00858,0.018,18.09068,5.57718,2.80871,5.89177
0.48867,0.00015,0.00011,0.00022,0.01214,0.00865,0.01821,18.14111,3.99648,2.84641,5.99305
0.49002,0.00013,0.00011,0.00023,0.01093,0.00868,0.01842,18.19153,3.61742,2.8713,6.0967
0.49138,0.00029,0.00011,0.00023,0.02368,0.00895,0.01864,18.24196,7.88141,2.97867,6.20275
0.49274,0.00027,0.00011,0.00023,0.022,0.00894,0.01886,18.29238,7.36299,2.9924,6.31125
0.4941,0.00005,0.00011,0.00024,0.00439,0.00903,0.01909,18.3428,1.47561,3.03676,6.42222
0.49546,0.00017,0.00011,0.00024,0.01417,0.00915,0.01932,18.39322,4.79354,3.0946,6.53571
0.49682,0.00015,0.00011,0.00024,0.01228,0.00919,0.01955,18.44364,4.17631,3.12766,6.65176
0.49817,0.00028,0.00011,0.00024,0.02271,0.0093,0.01979,18.49405,7.76798,3.18119,6.77041
0.49953,0.00038,0.00012,0.00025,0.03121,0.0095,0.02004,18.54447,10.73349,3.26631,6.8917
0.50089,0.00024,0.00012,0.00025,0.01916,0.00961,0.02029,18.59488,6.62562,3.32115,7.01566
0.50225,0.00031,0.00012,0.00025,0.0248,0.00964,0.02054,18.64529,8.62022,3.35155,7.14234
0.50361,0.00027,0.00012,0.00026,0.02219,0.00968,0.0208,18.69569,7.75755,3.38381,7.27177
0.50496,0.00006,0.00012,0.00026,0.00506,0.00997,0.02107,18.7461,1.77773,3.50394,7.40399
0.50632,0.00005,0.00012,0.00026,0.00384,0.00999,0.02134,18.7965,1.35594,3.52844,7.53906
0.50768,0.00025,0.00013,0.00027,0.0203,0.01015,0.02161,18.8469,7.21079,3.60397,7.67699
0.50904,0.00019,0.00013,0.00027,0.01569,0.01029,0.02189,18.8973,5.60335,3.67516,7.81784
0.51039,0.00029,0.00013,0.00027,0.02375,0.01046,0.02218,18.94769,8.52735,3.75402,7.96165
0.51175,0.00035,0.00013,0.00028,0.02803,0.01039,0.02247,18.99809,10.11839,3.75087,8.10846
0.51311,0.00014,0.00013,0.00028,0.01104,0.01055,0.02276,19.04848,4.00488,3.82892,8.2583
0.51447,0.00031,0.00013,0.00028,0.02507,0.01082,0.02306,19.09887,9.14488,3.94749,8.41122
0.51582,0.00026,0.00014,0.00029,0.02129,0.01096,0.02336,19.14925,7.80611,4.01782,8.56727
0.51718,0.0002,0.00013,0.00029,0.01604,0.0108,0.02367,19.19964,5.91397,3.98031,8.72648
0.51854,-0.00002,0.00014,0.0003,-0.00154,0.01118,0.02399,19.25002,-0.57082,4.14277,8.88891
0.51989,0.00011,0.00014,0.0003,0.00893,0.01134,0.02431,19.3004,3.32662,4.22392,9.05458
0.52125,0.0002,0.00014,0.0003,0.01596,0.01149,0.02463,19.35078,5.97471,4.30187,9.22355
0.52261,0.00023,0.00014,0.00031,0.01903,0.01174,0.02496,19.40116,7.16364,4.41816,9.39586
0.52397,0,0.00015,0.00031,-0.00014,0.01182,0.0253,19.45153,-0.05326,4.47137,9.57155
0.52532,-0.00003,0.00015,0.00032,-0.00237,0.01181,0.02564,19.50191,-0.90286,4.49298,9.75067
0.52668,0.00013,0.00015,0.00032,0.01062,0.01218,0.02598,19.55228,4.06003,4.65705,9.93326
0.52804,0.00026,0.00015,0.00032,0.02131,0.01237,0.02633,19.60265,8.18905,4.75414,10.11938
0.52939,0.00007,0.00016,0.00033,0.0056,0.01272,0.02669,19.65301,2.16232,4.91264,10.30905
0.53075,-0.00014,0.00016,0.00033,-0.01149,0.01272,0.02705,19.70337,-4.46215,4.93811,10.50233
0.53211,0.00039,0.00016,0.00034,0.03152,0.01284,0.02742,19.75374,12.30002,5.00971,10.69927
0.53346,0.00025,0.00016,0.00034,0.02043,0.01308,0.02779,19.80409,8.01085,5.13083,10.89991
0.53482,0.00013,0.00017,0.00035,0.01061,0.01341,0.02817,19.85445,4.18358,5.28688,11.10431
0.53618,0.00037,0.00017,0.00035,0.03018,0.01373,0.02855,19.90481,11.95649,5.43789,11.3125
0.53753,0.00043,0.00017,0.00036,0.03509,0.01397,0.02894,19.95516,13.97128,5.5642,11.52453
0.53889,-0.0004,0.00017,0.00036,-0.0324,0.01391,0.02933,20.00551,-12.96878,5.56862,11.74045
0.54024,0.00032,0.00018,0.00037,0.02594,0.01421,0.02973,20.05586,10.43347,5.71589,11.96032
0.5416,-0.00014,0.00018,0.00037,-0.01115,0.01462,0.03014,20.1062,-4.50741,5.90999,12.18418
0.54296,0.00021,0.00019,0.00038,0.01723,0.01514,0.03055,20.15654,6.99954,6.15058,12.41206
0.54431,0.00017,0.00019,0.00038,0.01356,0.01533,0.03097,20.20689,5.53797,6.25815,12.64405
0.54567,0.00001,0.00019,0.00039,0.00094,0.01565,0.03139,20.25723,0.38583,6.42191,12.88017
0.54702,0.00016,0.0002,0.00039,0.01307,0.01582,0.03182,20.30756,5.39009,6.52241,13.12047
0.54838,0.00052,0.0002,0.0004,0.0422,0.01636,0.03225,20.35789,17.48937,6.78129,13.36501
0.54974,-0.00008,0.00021,0.0004,-0.00637,0.01679,0.03269,20.40823,-2.65501,6.9911,13.61384
0.55109,0.0002,0.00022,0.00041,0.01652,0.01753,0.03313,20.45856,6.91359,7.338,13.86701
0.55245,0.00003,0.00022,0.00041,0.00241,0.01772,0.03358,20.50888,1.0149,7.45256,14.12458
0.5538,0.00051,0.00022,0.00042,0.04162,0.01805,0.03404,20.55921,17.59193,7.62963,14.38659
0.55516,0.00063,0.00023,0.00043,0.05071,0.01855,0.0345,20.60953,21.54126,7.87758,14.6531
0.55651,-0.00007,0.00024,0.00043,-0.00604,0.01915,0.03497,20.65985,-2.57938,8.17439,14.92413
0.55787,-0.00039,0.00025,0.00044,-0.03179,0.01987,0.03544,20.71017,-13.63714,8.52129,15.1998
0.55922,0.00035,0.00026,0.00044,0.02815,0.02081,0.03592,20.76049,12.13261,8.97082,15.4801
0.56058,0.00025,0.00026,0.00045,0.02066,0.02133,0.0364,20.8108,8.94969,9.23879,15.76511
0.56194,0.00044,0.00028,0.00046,0.03579,0.02233,0.03689,20.86111,15.57473,9.71593,16.05488
0.56329,0.00021,0.00029,0.00046,0.01708,0.02376,0.03739,20.91142,7.46921,10.38971,16.34948
0.56465,-0.0003,0.0003,0.00047,-0.02415,0.02434,0.03789,20.96173,-10.61274,10.69302,16.64894
0.566,-0.00013,0.00032,0.00047,-0.01021,0.02573,0.0384,21.01203,-4.50694,11.36192,16.95335
0.56736,-0.0003,0.00034,0.00048,-0.024,0.02755,0.03891,21.06233,-10.64909,12.22297,17.2627
0.56871,-0.0002,0.00036,0.00049,-0.01632,0.02955,0.03943,21.11263,-7.27529,13.17384,17.57711
0.57007,-0.00024,0.0004,0.00049,-0.0191,0.03216,0.03996,21.16293,-8.5525,14.40335,17.89662
0.57142,0.00026,0.00043,0.0005,0.02114,0.03482,0.04049,21.21322,9.51407,15.6694,18.22128
0.57277,0.00003,0.00047,0.00051,0.00272,0.03809,0.04103,21.26352,1.23006,17.22403,18.55114
0.57413,0.00032,0.00055,0.00051,0.02572,0.04475,0.04157,21.31381,11.68188,20.32808,18.88628
0.57548,-0.00005,0.00066,0.00052,-0.00373,0.0533,0.04212,21.3641,-1.70338,24.32639,19.22673
0.57684,-0.00053,0.00091,0.00053,-0.04289,0.07415,0.04268,21.41438,-19.66848,34.00564,19.57255
0.57819,0.0019,0.00243,0.00053,0.15409,0.19727,0.04324,21.46466,70.99226,90.89034,19.9238